resp.keys,resp.rt,trials.thisRepN,trials.thisTrialN,trials.thisN,trials.thisIndex,trials.ran,stimuli,participant,date,expName,psychopyVersion,OS,frameRate,gotResponse.keys,gotResponse.rt,resp_2.keys,resp_2.rt,trials_2.thisRepN,trials_2.thisTrialN,trials_2.thisN,trials_2.thisIndex,trials_2.ran,key_resp_3.keys,key_resp_3.rt,trials_4.thisRepN,trials_4.thisTrialN,trials_4.thisN,trials_4.thisIndex,trials_4.ran,resp_3.keys,resp_3.rt,trials_3.thisRepN,trials_3.thisTrialN,trials_3.thisN,trials_3.thisIndex,trials_3.ran,key_resp_2.keys,key_resp_2.rt,trials_5.thisRepN,trials_5.thisTrialN,trials_5.thisN,trials_5.thisIndex,trials_5.ran,key_resp.keys,key_resp.rt
right,1.28223,0,0,0,1,1,stim/VC_11.wav,5d4cc624ae079c0019f544b6,2021-01-20_15h38.02.544,Spanish_step2,2020.2.3,Win32,60,,,,,,,,,,,,,,,,,,,,,,,,,,,,,,,,
left,0.71756,0,1,1,0,1,stim/VC_01.wav,5d4cc624ae079c0019f544b6,2021-01-20_15h38.02.544,Spanish_step2,2020.2.3,Win32,60,,,,,,,,,,,,,,,,,,,,,,,,,,,,,,,,
,,,,,,,stim/VC_08.wav,5d4cc624ae079c0019f544b6,2021-01-20_15h38.02.544,Spanish_step2,2020.2.3,Win32,60,space,1.599965,right,1.079135,0,0,0,7,1,,,,,,,,,,,,,,,,,,,,,,,
,,,,,,,stim/VC_04.wav,5d4cc624ae079c0019f544b6,2021-01-20_15h38.02.544,Spanish_step2,2020.2.3,Win32,60,,,left,0.714715,0,1,1,3,1,,,,,,,,,,,,,,,,,,,,,,,
,,,,,,,stim/VC_10.wav,5d4cc624ae079c0019f544b6,2021-01-20_15h38.02.544,Spanish_step2,2020.2.3,Win32,60,,,right,0.94169,0,2,2,9,1,,,,,,,,,,,,,,,,,,,,,,,
,,,,,,,stim/VC_05.wav,5d4cc624ae079c0019f544b6,2021-01-20_15h38.02.544,Spanish_step2,2020.2.3,Win32,60,,,right,1.11074,0,3,3,4,1,,,,,,,,,,,,,,,,,,,,,,,
,,,,,,,stim/VC_07.wav,5d4cc624ae079c0019f544b6,2021-01-20_15h38.02.544,Spanish_step2,2020.2.3,Win32,60,,,left,1.30098,0,4,4,6,1,,,,,,,,,,,,,,,,,,,,,,,
,,,,,,,stim/VC_06.wav,5d4cc624ae079c0019f544b6,2021-01-20_15h38.02.544,Spanish_step2,2020.2.3,Win32,60,,,left,1.842395,0,5,5,5,1,,,,,,,,,,,,,,,,,,,,,,,
,,,,,,,stim/VC_03.wav,5d4cc624ae079c0019f544b6,2021-01-20_15h38.02.544,Spanish_step2,2020.2.3,Win32,60,,,left,0.73114,0,6,6,2,1,,,,,,,,,,,,,,,,,,,,,,,
,,,,,,,stim/VC_09.wav,5d4cc624ae079c0019f544b6,2021-01-20_15h38.02.544,Spanish_step2,2020.2.3,Win32,60,,,right,0.52321,0,7,7,8,1,,,,,,,,,,,,,,,,,,,,,,,
,,,,,,,stim/VC_11.wav,5d4cc624ae079c0019f544b6,2021-01-20_15h38.02.544,Spanish_step2,2020.2.3,Win32,60,,,right,0.59292,0,8,8,10,1,,,,,,,,,,,,,,,,,,,,,,,
,,,,,,,stim/VC_01.wav,5d4cc624ae079c0019f544b6,2021-01-20_15h38.02.544,Spanish_step2,2020.2.3,Win32,60,,,left,0.61519,0,9,9,0,1,,,,,,,,,,,,,,,,,,,,,,,
,,,,,,,stim/VC_02.wav,5d4cc624ae079c0019f544b6,2021-01-20_15h38.02.544,Spanish_step2,2020.2.3,Win32,60,,,left,0.96833,0,10,10,1,1,,,,,,,,,,,,,,,,,,,,,,,
,,,,,,,stim/VC_06.wav,5d4cc624ae079c0019f544b6,2021-01-20_15h38.02.544,Spanish_step2,2020.2.3,Win32,60,,,right,0.81238,1,0,11,5,1,,,,,,,,,,,,,,,,,,,,,,,
,,,,,,,stim/VC_03.wav,5d4cc624ae079c0019f544b6,2021-01-20_15h38.02.544,Spanish_step2,2020.2.3,Win32,60,,,left,0.5424,1,1,12,2,1,,,,,,,,,,,,,,,,,,,,,,,
,,,,,,,stim/VC_05.wav,5d4cc624ae079c0019f544b6,2021-01-20_15h38.02.544,Spanish_step2,2020.2.3,Win32,60,,,left,0.99453,1,2,13,4,1,,,,,,,,,,,,,,,,,,,,,,,
,,,,,,,stim/VC_11.wav,5d4cc624ae079c0019f544b6,2021-01-20_15h38.02.544,Spanish_step2,2020.2.3,Win32,60,,,right,0.502815,1,3,14,10,1,,,,,,,,,,,,,,,,,,,,,,,
,,,,,,,stim/VC_02.wav,5d4cc624ae079c0019f544b6,2021-01-20_15h38.02.544,Spanish_step2,2020.2.3,Win32,60,,,left,0.58943,1,4,15,1,1,,,,,,,,,,,,,,,,,,,,,,,
,,,,,,,stim/VC_10.wav,5d4cc624ae079c0019f544b6,2021-01-20_15h38.02.544,Spanish_step2,2020.2.3,Win32,60,,,right,0.63398,1,5,16,9,1,,,,,,,,,,,,,,,,,,,,,,,
,,,,,,,stim/VC_09.wav,5d4cc624ae079c0019f544b6,2021-01-20_15h38.02.544,Spanish_step2,2020.2.3,Win32,60,,,right,0.66156,1,6,17,8,1,,,,,,,,,,,,,,,,,,,,,,,
,,,,,,,stim/VC_07.wav,5d4cc624ae079c0019f544b6,2021-01-20_15h38.02.544,Spanish_step2,2020.2.3,Win32,60,,,right,1.044895,1,7,18,6,1,,,,,,,,,,,,,,,,,,,,,,,
,,,,,,,stim/VC_08.wav,5d4cc624ae079c0019f544b6,2021-01-20_15h38.02.544,Spanish_step2,2020.2.3,Win32,60,,,right,0.86092,1,8,19,7,1,,,,,,,,,,,,,,,,,,,,,,,
,,,,,,,stim/VC_01.wav,5d4cc624ae079c0019f544b6,2021-01-20_15h38.02.544,Spanish_step2,2020.2.3,Win32,60,,,left,0.533115,1,9,20,0,1,,,,,,,,,,,,,,,,,,,,,,,
,,,,,,,stim/VC_04.wav,5d4cc624ae079c0019f544b6,2021-01-20_15h38.02.544,Spanish_step2,2020.2.3,Win32,60,,,left,0.97599,1,10,21,3,1,,,,,,,,,,,,,,,,,,,,,,,
,,,,,,,stim/VC_03.wav,5d4cc624ae079c0019f544b6,2021-01-20_15h38.02.544,Spanish_step2,2020.2.3,Win32,60,,,left,0.85439,2,0,22,2,1,,,,,,,,,,,,,,,,,,,,,,,
,,,,,,,stim/VC_08.wav,5d4cc624ae079c0019f544b6,2021-01-20_15h38.02.544,Spanish_step2,2020.2.3,Win32,60,,,right,0.739685,2,1,23,7,1,,,,,,,,,,,,,,,,,,,,,,,
,,,,,,,stim/VC_11.wav,5d4cc624ae079c0019f544b6,2021-01-20_15h38.02.544,Spanish_step2,2020.2.3,Win32,60,,,right,1.11212,2,2,24,10,1,,,,,,,,,,,,,,,,,,,,,,,
,,,,,,,stim/VC_09.wav,5d4cc624ae079c0019f544b6,2021-01-20_15h38.02.544,Spanish_step2,2020.2.3,Win32,60,,,right,0.92824,2,3,25,8,1,,,,,,,,,,,,,,,,,,,,,,,
,,,,,,,stim/VC_07.wav,5d4cc624ae079c0019f544b6,2021-01-20_15h38.02.544,Spanish_step2,2020.2.3,Win32,60,,,right,1.131875,2,4,26,6,1,,,,,,,,,,,,,,,,,,,,,,,
,,,,,,,stim/VC_01.wav,5d4cc624ae079c0019f544b6,2021-01-20_15h38.02.544,Spanish_step2,2020.2.3,Win32,60,,,left,0.562285,2,5,27,0,1,,,,,,,,,,,,,,,,,,,,,,,
,,,,,,,stim/VC_04.wav,5d4cc624ae079c0019f544b6,2021-01-20_15h38.02.544,Spanish_step2,2020.2.3,Win32,60,,,left,1.309965,2,6,28,3,1,,,,,,,,,,,,,,,,,,,,,,,
,,,,,,,stim/VC_06.wav,5d4cc624ae079c0019f544b6,2021-01-20_15h38.02.544,Spanish_step2,2020.2.3,Win32,60,,,right,0.91283,2,7,29,5,1,,,,,,,,,,,,,,,,,,,,,,,
,,,,,,,stim/VC_02.wav,5d4cc624ae079c0019f544b6,2021-01-20_15h38.02.544,Spanish_step2,2020.2.3,Win32,60,,,left,0.680915,2,8,30,1,1,,,,,,,,,,,,,,,,,,,,,,,
,,,,,,,stim/VC_05.wav,5d4cc624ae079c0019f544b6,2021-01-20_15h38.02.544,Spanish_step2,2020.2.3,Win32,60,,,right,1.042365,2,9,31,4,1,,,,,,,,,,,,,,,,,,,,,,,
,,,,,,,stim/VC_10.wav,5d4cc624ae079c0019f544b6,2021-01-20_15h38.02.544,Spanish_step2,2020.2.3,Win32,60,,,right,1.25782,2,10,32,9,1,,,,,,,,,,,,,,,,,,,,,,,
,,,,,,,stim/VC_03.wav,5d4cc624ae079c0019f544b6,2021-01-20_15h38.02.544,Spanish_step2,2020.2.3,Win32,60,,,left,0.891275,,,,,,7,4.615155,0,0,0,2,1,,,,,,,,,,,,,,,,
,,,,,,,stim/VC_06.wav,5d4cc624ae079c0019f544b6,2021-01-20_15h38.02.544,Spanish_step2,2020.2.3,Win32,60,,,left,1.860695,,,,,,,,0,1,1,5,1,,,,,,,,,,,,,,,,
,,,,,,,stim/VC_11.wav,5d4cc624ae079c0019f544b6,2021-01-20_15h38.02.544,Spanish_step2,2020.2.3,Win32,60,,,right,0.661045,,,,,,,,0,2,2,10,1,,,,,,,,,,,,,,,,
,,,,,,,stim/VC_09.wav,5d4cc624ae079c0019f544b6,2021-01-20_15h38.02.544,Spanish_step2,2020.2.3,Win32,60,,,right,0.781065,,,,,,,,0,3,3,8,1,,,,,,,,,,,,,,,,
,,,,,,,stim/VC_01.wav,5d4cc624ae079c0019f544b6,2021-01-20_15h38.02.544,Spanish_step2,2020.2.3,Win32,60,,,left,0.512035,,,,,,,,0,4,4,0,1,,,,,,,,,,,,,,,,
,,,,,,,stim/VC_07.wav,5d4cc624ae079c0019f544b6,2021-01-20_15h38.02.544,Spanish_step2,2020.2.3,Win32,60,,,right,1.24248,,,,,,,,0,5,5,6,1,,,,,,,,,,,,,,,,
,,,,,,,stim/VC_05.wav,5d4cc624ae079c0019f544b6,2021-01-20_15h38.02.544,Spanish_step2,2020.2.3,Win32,60,,,left,1.303015,,,,,,,,0,6,6,4,1,,,,,,,,,,,,,,,,
,,,,,,,stim/VC_02.wav,5d4cc624ae079c0019f544b6,2021-01-20_15h38.02.544,Spanish_step2,2020.2.3,Win32,60,,,left,0.613485,,,,,,,,0,7,7,1,1,,,,,,,,,,,,,,,,
,,,,,,,stim/VC_04.wav,5d4cc624ae079c0019f544b6,2021-01-20_15h38.02.544,Spanish_step2,2020.2.3,Win32,60,,,left,0.66347,,,,,,,,0,8,8,3,1,,,,,,,,,,,,,,,,
,,,,,,,stim/VC_10.wav,5d4cc624ae079c0019f544b6,2021-01-20_15h38.02.544,Spanish_step2,2020.2.3,Win32,60,,,right,0.461185,,,,,,,,0,9,9,9,1,,,,,,,,,,,,,,,,
,,,,,,,stim/VC_08.wav,5d4cc624ae079c0019f544b6,2021-01-20_15h38.02.544,Spanish_step2,2020.2.3,Win32,60,,,right,0.86972,,,,,,,,0,10,10,7,1,,,,,,,,,,,,,,,,
,,,,,,,stim/VC_02.wav,5d4cc624ae079c0019f544b6,2021-01-20_15h38.02.544,Spanish_step2,2020.2.3,Win32,60,,,left,0.76306,,,,,,,,1,0,11,1,1,,,,,,,,,,,,,,,,
,,,,,,,stim/VC_04.wav,5d4cc624ae079c0019f544b6,2021-01-20_15h38.02.544,Spanish_step2,2020.2.3,Win32,60,,,left,0.64177,,,,,,,,1,1,12,3,1,,,,,,,,,,,,,,,,
,,,,,,,stim/VC_08.wav,5d4cc624ae079c0019f544b6,2021-01-20_15h38.02.544,Spanish_step2,2020.2.3,Win32,60,,,right,0.64215,,,,,,,,1,2,13,7,1,,,,,,,,,,,,,,,,
,,,,,,,stim/VC_01.wav,5d4cc624ae079c0019f544b6,2021-01-20_15h38.02.544,Spanish_step2,2020.2.3,Win32,60,,,left,0.53845,,,,,,,,1,3,14,0,1,,,,,,,,,,,,,,,,
,,,,,,,stim/VC_05.wav,5d4cc624ae079c0019f544b6,2021-01-20_15h38.02.544,Spanish_step2,2020.2.3,Win32,60,,,left,0.803705,,,,,,,,1,4,15,4,1,,,,,,,,,,,,,,,,
,,,,,,,stim/VC_03.wav,5d4cc624ae079c0019f544b6,2021-01-20_15h38.02.544,Spanish_step2,2020.2.3,Win32,60,,,left,0.86287,,,,,,,,1,5,16,2,1,,,,,,,,,,,,,,,,
,,,,,,,stim/VC_11.wav,5d4cc624ae079c0019f544b6,2021-01-20_15h38.02.544,Spanish_step2,2020.2.3,Win32,60,,,right,0.66468,,,,,,,,1,6,17,10,1,,,,,,,,,,,,,,,,
,,,,,,,stim/VC_10.wav,5d4cc624ae079c0019f544b6,2021-01-20_15h38.02.544,Spanish_step2,2020.2.3,Win32,60,,,right,0.88074,,,,,,,,1,7,18,9,1,,,,,,,,,,,,,,,,
,,,,,,,stim/VC_07.wav,5d4cc624ae079c0019f544b6,2021-01-20_15h38.02.544,Spanish_step2,2020.2.3,Win32,60,,,left,1.48151,,,,,,,,1,8,19,6,1,,,,,,,,,,,,,,,,
,,,,,,,stim/VC_09.wav,5d4cc624ae079c0019f544b6,2021-01-20_15h38.02.544,Spanish_step2,2020.2.3,Win32,60,,,right,0.618855,,,,,,,,1,9,20,8,1,,,,,,,,,,,,,,,,
,,,,,,,stim/VC_06.wav,5d4cc624ae079c0019f544b6,2021-01-20_15h38.02.544,Spanish_step2,2020.2.3,Win32,60,,,left,0.68382,,,,,,,,1,10,21,5,1,,,,,,,,,,,,,,,,
,,,,,,,stim2/pa+35.wav,5d4cc624ae079c0019f544b6,2021-01-20_15h38.02.544,Spanish_step2,2020.2.3,Win32,60,,,,,,,,,,,,,,,,,left,1.42736,0,0,0,6,1,,,,,,,,,
,,,,,,,stim2/pa-15.wav,5d4cc624ae079c0019f544b6,2021-01-20_15h38.02.544,Spanish_step2,2020.2.3,Win32,60,,,,,,,,,,,,,,,,,left,0.654775,0,1,1,12,1,,,,,,,,,
,,,,,,,stim2/pa-05.wav,5d4cc624ae079c0019f544b6,2021-01-20_15h38.02.544,Spanish_step2,2020.2.3,Win32,60,,,,,,,,,,,,,,,,,left,0.493115,0,2,2,10,1,,,,,,,,,
,,,,,,,stim2/pa-10.wav,5d4cc624ae079c0019f544b6,2021-01-20_15h38.02.544,Spanish_step2,2020.2.3,Win32,60,,,,,,,,,,,,,,,,,left,1.617335,0,3,3,11,1,,,,,,,,,
,,,,,,,stim2/pa+20.wav,5d4cc624ae079c0019f544b6,2021-01-20_15h38.02.544,Spanish_step2,2020.2.3,Win32,60,,,,,,,,,,,,,,,,,left,0.68087,0,4,4,3,1,,,,,,,,,
,,,,,,,stim2/pa-30.wav,5d4cc624ae079c0019f544b6,2021-01-20_15h38.02.544,Spanish_step2,2020.2.3,Win32,60,,,,,,,,,,,,,,,,,right,0.49146,0,5,5,15,1,,,,,,,,,
,,,,,,,stim2/pa+15.wav,5d4cc624ae079c0019f544b6,2021-01-20_15h38.02.544,Spanish_step2,2020.2.3,Win32,60,,,,,,,,,,,,,,,,,left,0.793135,0,6,6,2,1,,,,,,,,,
,,,,,,,stim2/pa-20.wav,5d4cc624ae079c0019f544b6,2021-01-20_15h38.02.544,Spanish_step2,2020.2.3,Win32,60,,,,,,,,,,,,,,,,,right,0.370075,0,7,7,13,1,,,,,,,,,
,,,,,,,stim2/pa+50.wav,5d4cc624ae079c0019f544b6,2021-01-20_15h38.02.544,Spanish_step2,2020.2.3,Win32,60,,,,,,,,,,,,,,,,,left,0.693635,0,8,8,9,1,,,,,,,,,
,,,,,,,stim2/pa+05.wav,5d4cc624ae079c0019f544b6,2021-01-20_15h38.02.544,Spanish_step2,2020.2.3,Win32,60,,,,,,,,,,,,,,,,,left,0.66255,0,9,9,0,1,,,,,,,,,
,,,,,,,stim2/pa-25.wav,5d4cc624ae079c0019f544b6,2021-01-20_15h38.02.544,Spanish_step2,2020.2.3,Win32,60,,,,,,,,,,,,,,,,,left,0.81807,0,10,10,14,1,,,,,,,,,
,,,,,,,stim2/pa+30.wav,5d4cc624ae079c0019f544b6,2021-01-20_15h38.02.544,Spanish_step2,2020.2.3,Win32,60,,,,,,,,,,,,,,,,,left,0.896885,0,11,11,5,1,,,,,,,,,
,,,,,,,stim2/pa+40.wav,5d4cc624ae079c0019f544b6,2021-01-20_15h38.02.544,Spanish_step2,2020.2.3,Win32,60,,,,,,,,,,,,,,,,,left,1.111135,0,12,12,7,1,,,,,,,,,
,,,,,,,stim2/pa+25.wav,5d4cc624ae079c0019f544b6,2021-01-20_15h38.02.544,Spanish_step2,2020.2.3,Win32,60,,,,,,,,,,,,,,,,,right,0.465455,0,13,13,4,1,,,,,,,,,
,,,,,,,stim2/pa+10.wav,5d4cc624ae079c0019f544b6,2021-01-20_15h38.02.544,Spanish_step2,2020.2.3,Win32,60,,,,,,,,,,,,,,,,,right,0.642605,0,14,14,1,1,,,,,,,,,
,,,,,,,stim2/pa+45.wav,5d4cc624ae079c0019f544b6,2021-01-20_15h38.02.544,Spanish_step2,2020.2.3,Win32,60,,,,,,,,,,,,,,,,,left,0.680425,0,15,15,8,1,,,,,,,,,
,,,,,,,stim2/pa-35.wav,5d4cc624ae079c0019f544b6,2021-01-20_15h38.02.544,Spanish_step2,2020.2.3,Win32,60,,,,,,,,,,,,,,,,,right,0.57294,0,16,16,16,1,,,,,,,,,
,,,,,,,stim2/pa+10.wav,5d4cc624ae079c0019f544b6,2021-01-20_15h38.02.544,Spanish_step2,2020.2.3,Win32,60,,,,,,,,,,,,,,,,,left,0.62398,1,0,17,1,1,,,,,,,,,
,,,,,,,stim2/pa-10.wav,5d4cc624ae079c0019f544b6,2021-01-20_15h38.02.544,Spanish_step2,2020.2.3,Win32,60,,,,,,,,,,,,,,,,,left,0.88327,1,1,18,11,1,,,,,,,,,
,,,,,,,stim2/pa+05.wav,5d4cc624ae079c0019f544b6,2021-01-20_15h38.02.544,Spanish_step2,2020.2.3,Win32,60,,,,,,,,,,,,,,,,,right,0.5045,1,2,19,0,1,,,,,,,,,
,,,,,,,stim2/pa-15.wav,5d4cc624ae079c0019f544b6,2021-01-20_15h38.02.544,Spanish_step2,2020.2.3,Win32,60,,,,,,,,,,,,,,,,,left,0.51971,1,3,20,12,1,,,,,,,,,
,,,,,,,stim2/pa+25.wav,5d4cc624ae079c0019f544b6,2021-01-20_15h38.02.544,Spanish_step2,2020.2.3,Win32,60,,,,,,,,,,,,,,,,,right,0.586565,1,4,21,4,1,,,,,,,,,
,,,,,,,stim2/pa+50.wav,5d4cc624ae079c0019f544b6,2021-01-20_15h38.02.544,Spanish_step2,2020.2.3,Win32,60,,,,,,,,,,,,,,,,,left,0.8922,1,5,22,9,1,,,,,,,,,
,,,,,,,stim2/pa-30.wav,5d4cc624ae079c0019f544b6,2021-01-20_15h38.02.544,Spanish_step2,2020.2.3,Win32,60,,,,,,,,,,,,,,,,,left,0.678335,1,6,23,15,1,,,,,,,,,
,,,,,,,stim2/pa+30.wav,5d4cc624ae079c0019f544b6,2021-01-20_15h38.02.544,Spanish_step2,2020.2.3,Win32,60,,,,,,,,,,,,,,,,,right,1.593845,1,7,24,5,1,,,,,,,,,
,,,,,,,stim2/pa-25.wav,5d4cc624ae079c0019f544b6,2021-01-20_15h38.02.544,Spanish_step2,2020.2.3,Win32,60,,,,,,,,,,,,,,,,,right,0.64962,1,8,25,14,1,,,,,,,,,
,,,,,,,stim2/pa+15.wav,5d4cc624ae079c0019f544b6,2021-01-20_15h38.02.544,Spanish_step2,2020.2.3,Win32,60,,,,,,,,,,,,,,,,,left,0.695185,1,9,26,2,1,,,,,,,,,
,,,,,,,stim2/pa+20.wav,5d4cc624ae079c0019f544b6,2021-01-20_15h38.02.544,Spanish_step2,2020.2.3,Win32,60,,,,,,,,,,,,,,,,,right,0.53639,1,10,27,3,1,,,,,,,,,
,,,,,,,stim2/pa+35.wav,5d4cc624ae079c0019f544b6,2021-01-20_15h38.02.544,Spanish_step2,2020.2.3,Win32,60,,,,,,,,,,,,,,,,,left,1.517885,1,11,28,6,1,,,,,,,,,
,,,,,,,stim2/pa+45.wav,5d4cc624ae079c0019f544b6,2021-01-20_15h38.02.544,Spanish_step2,2020.2.3,Win32,60,,,,,,,,,,,,,,,,,right,0.74056,1,12,29,8,1,,,,,,,,,
,,,,,,,stim2/pa-35.wav,5d4cc624ae079c0019f544b6,2021-01-20_15h38.02.544,Spanish_step2,2020.2.3,Win32,60,,,,,,,,,,,,,,,,,left,0.74481,1,13,30,16,1,,,,,,,,,
,,,,,,,stim2/pa+40.wav,5d4cc624ae079c0019f544b6,2021-01-20_15h38.02.544,Spanish_step2,2020.2.3,Win32,60,,,,,,,,,,,,,,,,,right,0.778195,1,14,31,7,1,,,,,,,,,
,,,,,,,stim2/pa-05.wav,5d4cc624ae079c0019f544b6,2021-01-20_15h38.02.544,Spanish_step2,2020.2.3,Win32,60,,,,,,,,,,,,,,,,,right,0.587725,1,15,32,10,1,,,,,,,,,
,,,,,,,stim2/pa-20.wav,5d4cc624ae079c0019f544b6,2021-01-20_15h38.02.544,Spanish_step2,2020.2.3,Win32,60,,,,,,,,,,,,,,,,,left,0.893755,1,16,33,13,1,,,,,,,,,
,,,,,,,stim2/pa+35.wav,5d4cc624ae079c0019f544b6,2021-01-20_15h38.02.544,Spanish_step2,2020.2.3,Win32,60,,,,,,,,,,,,,,,,,right,0.58047,2,0,34,6,1,,,,,,,,,
,,,,,,,stim2/pa+30.wav,5d4cc624ae079c0019f544b6,2021-01-20_15h38.02.544,Spanish_step2,2020.2.3,Win32,60,,,,,,,,,,,,,,,,,left,0.426995,2,1,35,5,1,,,,,,,,,
,,,,,,,stim2/pa+15.wav,5d4cc624ae079c0019f544b6,2021-01-20_15h38.02.544,Spanish_step2,2020.2.3,Win32,60,,,,,,,,,,,,,,,,,left,0.636995,2,2,36,2,1,,,,,,,,,
,,,,,,,stim2/pa-05.wav,5d4cc624ae079c0019f544b6,2021-01-20_15h38.02.544,Spanish_step2,2020.2.3,Win32,60,,,,,,,,,,,,,,,,,right,0.42126,2,3,37,10,1,,,,,,,,,
,,,,,,,stim2/pa-10.wav,5d4cc624ae079c0019f544b6,2021-01-20_15h38.02.544,Spanish_step2,2020.2.3,Win32,60,,,,,,,,,,,,,,,,,left,0.59784,2,4,38,11,1,,,,,,,,,
,,,,,,,stim2/pa-25.wav,5d4cc624ae079c0019f544b6,2021-01-20_15h38.02.544,Spanish_step2,2020.2.3,Win32,60,,,,,,,,,,,,,,,,,right,0.932165,2,5,39,14,1,,,,,,,,,
,,,,,,,stim2/pa-20.wav,5d4cc624ae079c0019f544b6,2021-01-20_15h38.02.544,Spanish_step2,2020.2.3,Win32,60,,,,,,,,,,,,,,,,,left,0.64577,2,6,40,13,1,,,,,,,,,
,,,,,,,stim2/pa-30.wav,5d4cc624ae079c0019f544b6,2021-01-20_15h38.02.544,Spanish_step2,2020.2.3,Win32,60,,,,,,,,,,,,,,,,,right,0.61158,2,7,41,15,1,,,,,,,,,
,,,,,,,stim2/pa+45.wav,5d4cc624ae079c0019f544b6,2021-01-20_15h38.02.544,Spanish_step2,2020.2.3,Win32,60,,,,,,,,,,,,,,,,,left,0.644195,2,8,42,8,1,,,,,,,,,
,,,,,,,stim2/pa+40.wav,5d4cc624ae079c0019f544b6,2021-01-20_15h38.02.544,Spanish_step2,2020.2.3,Win32,60,,,,,,,,,,,,,,,,,right,0.61264,2,9,43,7,1,,,,,,,,,
,,,,,,,stim2/pa+05.wav,5d4cc624ae079c0019f544b6,2021-01-20_15h38.02.544,Spanish_step2,2020.2.3,Win32,60,,,,,,,,,,,,,,,,,left,0.642155,2,10,44,0,1,,,,,,,,,
,,,,,,,stim2/pa+20.wav,5d4cc624ae079c0019f544b6,2021-01-20_15h38.02.544,Spanish_step2,2020.2.3,Win32,60,,,,,,,,,,,,,,,,,right,0.53681,2,11,45,3,1,,,,,,,,,
,,,,,,,stim2/pa-15.wav,5d4cc624ae079c0019f544b6,2021-01-20_15h38.02.544,Spanish_step2,2020.2.3,Win32,60,,,,,,,,,,,,,,,,,left,0.619345,2,12,46,12,1,,,,,,,,,
,,,,,,,stim2/pa-35.wav,5d4cc624ae079c0019f544b6,2021-01-20_15h38.02.544,Spanish_step2,2020.2.3,Win32,60,,,,,,,,,,,,,,,,,right,1.29315,2,13,47,16,1,,,,,,,,,
,,,,,,,stim2/pa+25.wav,5d4cc624ae079c0019f544b6,2021-01-20_15h38.02.544,Spanish_step2,2020.2.3,Win32,60,,,,,,,,,,,,,,,,,left,1.21175,2,14,48,4,1,,,,,,,,,
,,,,,,,stim2/pa+50.wav,5d4cc624ae079c0019f544b6,2021-01-20_15h38.02.544,Spanish_step2,2020.2.3,Win32,60,,,,,,,,,,,,,,,,,left,0.92267,2,15,49,9,1,,,,,,,,,
,,,,,,,stim2/pa+10.wav,5d4cc624ae079c0019f544b6,2021-01-20_15h38.02.544,Spanish_step2,2020.2.3,Win32,60,,,,,,,,,,,,,,,,,left,0.945085,2,16,50,1,1,,,,,,,,,
,,,,,,,stim2/pa-15.wav,5d4cc624ae079c0019f544b6,2021-01-20_15h38.02.544,Spanish_step2,2020.2.3,Win32,60,,,,,,,,,,,,,,,,,left,1.07647,,,,,,z,3.522155,0,0,0,12,1,,
,,,,,,,stim2/pa-35.wav,5d4cc624ae079c0019f544b6,2021-01-20_15h38.02.544,Spanish_step2,2020.2.3,Win32,60,,,,,,,,,,,,,,,,,right,0.590215,,,,,,,,0,1,1,16,1,,
,,,,,,,stim2/pa+25.wav,5d4cc624ae079c0019f544b6,2021-01-20_15h38.02.544,Spanish_step2,2020.2.3,Win32,60,,,,,,,,,,,,,,,,,left,0.593365,,,,,,,,0,2,2,4,1,,
,,,,,,,stim2/pa+50.wav,5d4cc624ae079c0019f544b6,2021-01-20_15h38.02.544,Spanish_step2,2020.2.3,Win32,60,,,,,,,,,,,,,,,,,left,0.660705,,,,,,,,0,3,3,9,1,,
,,,,,,,stim2/pa-20.wav,5d4cc624ae079c0019f544b6,2021-01-20_15h38.02.544,Spanish_step2,2020.2.3,Win32,60,,,,,,,,,,,,,,,,,right,0.761015,,,,,,,,0,4,4,13,1,,
,,,,,,,stim2/pa+40.wav,5d4cc624ae079c0019f544b6,2021-01-20_15h38.02.544,Spanish_step2,2020.2.3,Win32,60,,,,,,,,,,,,,,,,,left,0.73734,,,,,,,,0,5,5,7,1,,
,,,,,,,stim2/pa+15.wav,5d4cc624ae079c0019f544b6,2021-01-20_15h38.02.544,Spanish_step2,2020.2.3,Win32,60,,,,,,,,,,,,,,,,,right,0.51967,,,,,,,,0,6,6,2,1,,
,,,,,,,stim2/pa+20.wav,5d4cc624ae079c0019f544b6,2021-01-20_15h38.02.544,Spanish_step2,2020.2.3,Win32,60,,,,,,,,,,,,,,,,,left,0.664605,,,,,,,,0,7,7,3,1,,
,,,,,,,stim2/pa-25.wav,5d4cc624ae079c0019f544b6,2021-01-20_15h38.02.544,Spanish_step2,2020.2.3,Win32,60,,,,,,,,,,,,,,,,,right,0.58109,,,,,,,,0,8,8,14,1,,
,,,,,,,stim2/pa+05.wav,5d4cc624ae079c0019f544b6,2021-01-20_15h38.02.544,Spanish_step2,2020.2.3,Win32,60,,,,,,,,,,,,,,,,,left,0.72253,,,,,,,,0,9,9,0,1,,
,,,,,,,stim2/pa-05.wav,5d4cc624ae079c0019f544b6,2021-01-20_15h38.02.544,Spanish_step2,2020.2.3,Win32,60,,,,,,,,,,,,,,,,,left,1.47242,,,,,,,,0,10,10,10,1,,
,,,,,,,stim2/pa+30.wav,5d4cc624ae079c0019f544b6,2021-01-20_15h38.02.544,Spanish_step2,2020.2.3,Win32,60,,,,,,,,,,,,,,,,,right,0.59409,,,,,,,,0,11,11,5,1,,
,,,,,,,stim2/pa+35.wav,5d4cc624ae079c0019f544b6,2021-01-20_15h38.02.544,Spanish_step2,2020.2.3,Win32,60,,,,,,,,,,,,,,,,,left,1.397885,,,,,,,,0,12,12,6,1,,
,,,,,,,stim2/pa+45.wav,5d4cc624ae079c0019f544b6,2021-01-20_15h38.02.544,Spanish_step2,2020.2.3,Win32,60,,,,,,,,,,,,,,,,,right,0.640575,,,,,,,,0,13,13,8,1,,
,,,,,,,stim2/pa-10.wav,5d4cc624ae079c0019f544b6,2021-01-20_15h38.02.544,Spanish_step2,2020.2.3,Win32,60,,,,,,,,,,,,,,,,,left,0.83061,,,,,,,,0,14,14,11,1,,
,,,,,,,stim2/pa+10.wav,5d4cc624ae079c0019f544b6,2021-01-20_15h38.02.544,Spanish_step2,2020.2.3,Win32,60,,,,,,,,,,,,,,,,,right,1.63175,,,,,,,,0,15,15,1,1,,
,,,,,,,stim2/pa-30.wav,5d4cc624ae079c0019f544b6,2021-01-20_15h38.02.544,Spanish_step2,2020.2.3,Win32,60,,,,,,,,,,,,,,,,,left,0.567115,,,,,,,,0,16,16,15,1,,
,,,,,,,stim2/pa+10.wav,5d4cc624ae079c0019f544b6,2021-01-20_15h38.02.544,Spanish_step2,2020.2.3,Win32,60,,,,,,,,,,,,,,,,,left,1.130945,,,,,,,,1,0,17,1,1,,
,,,,,,,stim2/pa+05.wav,5d4cc624ae079c0019f544b6,2021-01-20_15h38.02.544,Spanish_step2,2020.2.3,Win32,60,,,,,,,,,,,,,,,,,left,1.63821,,,,,,,,1,1,18,0,1,,
,,,,,,,stim2/pa+15.wav,5d4cc624ae079c0019f544b6,2021-01-20_15h38.02.544,Spanish_step2,2020.2.3,Win32,60,,,,,,,,,,,,,,,,,left,0.963655,,,,,,,,1,2,19,2,1,,
,,,,,,,stim2/pa-35.wav,5d4cc624ae079c0019f544b6,2021-01-20_15h38.02.544,Spanish_step2,2020.2.3,Win32,60,,,,,,,,,,,,,,,,,right,0.57762,,,,,,,,1,3,20,16,1,,
,,,,,,,stim2/pa+35.wav,5d4cc624ae079c0019f544b6,2021-01-20_15h38.02.544,Spanish_step2,2020.2.3,Win32,60,,,,,,,,,,,,,,,,,left,0.947205,,,,,,,,1,4,21,6,1,,
,,,,,,,stim2/pa-05.wav,5d4cc624ae079c0019f544b6,2021-01-20_15h38.02.544,Spanish_step2,2020.2.3,Win32,60,,,,,,,,,,,,,,,,,left,0.61302,,,,,,,,1,5,22,10,1,,
,,,,,,,stim2/pa-20.wav,5d4cc624ae079c0019f544b6,2021-01-20_15h38.02.544,Spanish_step2,2020.2.3,Win32,60,,,,,,,,,,,,,,,,,right,0.48962,,,,,,,,1,6,23,13,1,,
,,,,,,,stim2/pa-30.wav,5d4cc624ae079c0019f544b6,2021-01-20_15h38.02.544,Spanish_step2,2020.2.3,Win32,60,,,,,,,,,,,,,,,,,left,0.59009,,,,,,,,1,7,24,15,1,,
,,,,,,,stim2/pa+40.wav,5d4cc624ae079c0019f544b6,2021-01-20_15h38.02.544,Spanish_step2,2020.2.3,Win32,60,,,,,,,,,,,,,,,,,right,0.63913,,,,,,,,1,8,25,7,1,,
,,,,,,,stim2/pa-25.wav,5d4cc624ae079c0019f544b6,2021-01-20_15h38.02.544,Spanish_step2,2020.2.3,Win32,60,,,,,,,,,,,,,,,,,left,0.58909,,,,,,,,1,9,26,14,1,,
,,,,,,,stim2/pa-15.wav,5d4cc624ae079c0019f544b6,2021-01-20_15h38.02.544,Spanish_step2,2020.2.3,Win32,60,,,,,,,,,,,,,,,,,right,0.546975,,,,,,,,1,10,27,12,1,,
,,,,,,,stim2/pa+30.wav,5d4cc624ae079c0019f544b6,2021-01-20_15h38.02.544,Spanish_step2,2020.2.3,Win32,60,,,,,,,,,,,,,,,,,left,0.56772,,,,,,,,1,11,28,5,1,,
,,,,,,,stim2/pa+25.wav,5d4cc624ae079c0019f544b6,2021-01-20_15h38.02.544,Spanish_step2,2020.2.3,Win32,60,,,,,,,,,,,,,,,,,right,0.72637,,,,,,,,1,12,29,4,1,,
,,,,,,,stim2/pa+45.wav,5d4cc624ae079c0019f544b6,2021-01-20_15h38.02.544,Spanish_step2,2020.2.3,Win32,60,,,,,,,,,,,,,,,,,left,0.44032,,,,,,,,1,13,30,8,1,,
,,,,,,,stim2/pa+20.wav,5d4cc624ae079c0019f544b6,2021-01-20_15h38.02.544,Spanish_step2,2020.2.3,Win32,60,,,,,,,,,,,,,,,,,left,0.882405,,,,,,,,1,14,31,3,1,,
,,,,,,,stim2/pa-10.wav,5d4cc624ae079c0019f544b6,2021-01-20_15h38.02.544,Spanish_step2,2020.2.3,Win32,60,,,,,,,,,,,,,,,,,right,0.62663,,,,,,,,1,15,32,11,1,,
,,,,,,,stim2/pa+50.wav,5d4cc624ae079c0019f544b6,2021-01-20_15h38.02.544,Spanish_step2,2020.2.3,Win32,60,,,,,,,,,,,,,,,,,left,0.57331,,,,,,,,1,16,33,9,1,,
,,,,,,,,5d4cc624ae079c0019f544b6,2021-01-20_15h38.02.544,Spanish_step2,2020.2.3,Win32,60,,,,,,,,,,,,,,,,,,,,,,,,,,,,,,,space,4.4975
