resp.keys,resp.rt,trials.thisRepN,trials.thisTrialN,trials.thisN,trials.thisIndex,trials.ran,stimuli,participant,date,expName,psychopyVersion,OS,frameRate,gotResponse.keys,gotResponse.rt,resp_2.keys,resp_2.rt,trials_2.thisRepN,trials_2.thisTrialN,trials_2.thisN,trials_2.thisIndex,trials_2.ran,key_resp_3.keys,key_resp_3.rt,trials_4.thisRepN,trials_4.thisTrialN,trials_4.thisN,trials_4.thisIndex,trials_4.ran,resp_3.keys,resp_3.rt,trials_3.thisRepN,trials_3.thisTrialN,trials_3.thisN,trials_3.thisIndex,trials_3.ran,key_resp_2.keys,key_resp_2.rt,trials_5.thisRepN,trials_5.thisTrialN,trials_5.thisN,trials_5.thisIndex,trials_5.ran,key_resp.keys,key_resp.rt
left,4.4513,0,0,0,0,1,stim/VC_01.wav,5df216021d6b46119b5b5db9,2021-02-04_06h14.06.555,Spanish_step2,2020.2.3,Win32,60,,,,,,,,,,,,,,,,,,,,,,,,,,,,,,,,
right,1.067395,0,1,1,1,1,stim/VC_11.wav,5df216021d6b46119b5b5db9,2021-02-04_06h14.06.555,Spanish_step2,2020.2.3,Win32,60,,,,,,,,,,,,,,,,,,,,,,,,,,,,,,,,
,,,,,,,stim/VC_06.wav,5df216021d6b46119b5b5db9,2021-02-04_06h14.06.555,Spanish_step2,2020.2.3,Win32,60,space,5.787355,right,1.185805,0,0,0,5,1,,,,,,,,,,,,,,,,,,,,,,,
,,,,,,,stim/VC_02.wav,5df216021d6b46119b5b5db9,2021-02-04_06h14.06.555,Spanish_step2,2020.2.3,Win32,60,,,left,0.546325,0,1,1,1,1,,,,,,,,,,,,,,,,,,,,,,,
,,,,,,,stim/VC_01.wav,5df216021d6b46119b5b5db9,2021-02-04_06h14.06.555,Spanish_step2,2020.2.3,Win32,60,,,left,0.56782,0,2,2,0,1,,,,,,,,,,,,,,,,,,,,,,,
,,,,,,,stim/VC_08.wav,5df216021d6b46119b5b5db9,2021-02-04_06h14.06.555,Spanish_step2,2020.2.3,Win32,60,,,right,0.586395,0,3,3,7,1,,,,,,,,,,,,,,,,,,,,,,,
,,,,,,,stim/VC_05.wav,5df216021d6b46119b5b5db9,2021-02-04_06h14.06.555,Spanish_step2,2020.2.3,Win32,60,,,right,0.685775,0,4,4,4,1,,,,,,,,,,,,,,,,,,,,,,,
,,,,,,,stim/VC_03.wav,5df216021d6b46119b5b5db9,2021-02-04_06h14.06.555,Spanish_step2,2020.2.3,Win32,60,,,left,1.467785,0,5,5,2,1,,,,,,,,,,,,,,,,,,,,,,,
,,,,,,,stim/VC_09.wav,5df216021d6b46119b5b5db9,2021-02-04_06h14.06.555,Spanish_step2,2020.2.3,Win32,60,,,right,0.810695,0,6,6,8,1,,,,,,,,,,,,,,,,,,,,,,,
,,,,,,,stim/VC_11.wav,5df216021d6b46119b5b5db9,2021-02-04_06h14.06.555,Spanish_step2,2020.2.3,Win32,60,,,right,0.805985,0,7,7,10,1,,,,,,,,,,,,,,,,,,,,,,,
,,,,,,,stim/VC_10.wav,5df216021d6b46119b5b5db9,2021-02-04_06h14.06.555,Spanish_step2,2020.2.3,Win32,60,,,right,0.527,0,8,8,9,1,,,,,,,,,,,,,,,,,,,,,,,
,,,,,,,stim/VC_07.wav,5df216021d6b46119b5b5db9,2021-02-04_06h14.06.555,Spanish_step2,2020.2.3,Win32,60,,,right,0.78914,0,9,9,6,1,,,,,,,,,,,,,,,,,,,,,,,
,,,,,,,stim/VC_04.wav,5df216021d6b46119b5b5db9,2021-02-04_06h14.06.555,Spanish_step2,2020.2.3,Win32,60,,,left,0.9752,0,10,10,3,1,,,,,,,,,,,,,,,,,,,,,,,
,,,,,,,stim/VC_04.wav,5df216021d6b46119b5b5db9,2021-02-04_06h14.06.555,Spanish_step2,2020.2.3,Win32,60,,,left,0.54629,1,0,11,3,1,,,,,,,,,,,,,,,,,,,,,,,
,,,,,,,stim/VC_01.wav,5df216021d6b46119b5b5db9,2021-02-04_06h14.06.555,Spanish_step2,2020.2.3,Win32,60,,,left,0.567565,1,1,12,0,1,,,,,,,,,,,,,,,,,,,,,,,
,,,,,,,stim/VC_02.wav,5df216021d6b46119b5b5db9,2021-02-04_06h14.06.555,Spanish_step2,2020.2.3,Win32,60,,,left,0.47482,1,2,13,1,1,,,,,,,,,,,,,,,,,,,,,,,
,,,,,,,stim/VC_05.wav,5df216021d6b46119b5b5db9,2021-02-04_06h14.06.555,Spanish_step2,2020.2.3,Win32,60,,,right,0.67431,1,3,14,4,1,,,,,,,,,,,,,,,,,,,,,,,
,,,,,,,stim/VC_03.wav,5df216021d6b46119b5b5db9,2021-02-04_06h14.06.555,Spanish_step2,2020.2.3,Win32,60,,,left,0.929795,1,4,15,2,1,,,,,,,,,,,,,,,,,,,,,,,
,,,,,,,stim/VC_09.wav,5df216021d6b46119b5b5db9,2021-02-04_06h14.06.555,Spanish_step2,2020.2.3,Win32,60,,,right,0.77606,1,5,16,8,1,,,,,,,,,,,,,,,,,,,,,,,
,,,,,,,stim/VC_08.wav,5df216021d6b46119b5b5db9,2021-02-04_06h14.06.555,Spanish_step2,2020.2.3,Win32,60,,,right,0.883745,1,6,17,7,1,,,,,,,,,,,,,,,,,,,,,,,
,,,,,,,stim/VC_10.wav,5df216021d6b46119b5b5db9,2021-02-04_06h14.06.555,Spanish_step2,2020.2.3,Win32,60,,,right,0.5696,1,7,18,9,1,,,,,,,,,,,,,,,,,,,,,,,
,,,,,,,stim/VC_06.wav,5df216021d6b46119b5b5db9,2021-02-04_06h14.06.555,Spanish_step2,2020.2.3,Win32,60,,,right,0.95618,1,8,19,5,1,,,,,,,,,,,,,,,,,,,,,,,
,,,,,,,stim/VC_11.wav,5df216021d6b46119b5b5db9,2021-02-04_06h14.06.555,Spanish_step2,2020.2.3,Win32,60,,,right,0.60861,1,9,20,10,1,,,,,,,,,,,,,,,,,,,,,,,
,,,,,,,stim/VC_07.wav,5df216021d6b46119b5b5db9,2021-02-04_06h14.06.555,Spanish_step2,2020.2.3,Win32,60,,,right,0.563185,1,10,21,6,1,,,,,,,,,,,,,,,,,,,,,,,
,,,,,,,stim/VC_04.wav,5df216021d6b46119b5b5db9,2021-02-04_06h14.06.555,Spanish_step2,2020.2.3,Win32,60,,,right,1.59078,2,0,22,3,1,,,,,,,,,,,,,,,,,,,,,,,
,,,,,,,stim/VC_08.wav,5df216021d6b46119b5b5db9,2021-02-04_06h14.06.555,Spanish_step2,2020.2.3,Win32,60,,,right,0.673105,2,1,23,7,1,,,,,,,,,,,,,,,,,,,,,,,
,,,,,,,stim/VC_03.wav,5df216021d6b46119b5b5db9,2021-02-04_06h14.06.555,Spanish_step2,2020.2.3,Win32,60,,,left,0.721895,2,2,24,2,1,,,,,,,,,,,,,,,,,,,,,,,
,,,,,,,stim/VC_10.wav,5df216021d6b46119b5b5db9,2021-02-04_06h14.06.555,Spanish_step2,2020.2.3,Win32,60,,,right,0.73404,2,3,25,9,1,,,,,,,,,,,,,,,,,,,,,,,
,,,,,,,stim/VC_09.wav,5df216021d6b46119b5b5db9,2021-02-04_06h14.06.555,Spanish_step2,2020.2.3,Win32,60,,,right,0.506695,2,4,26,8,1,,,,,,,,,,,,,,,,,,,,,,,
,,,,,,,stim/VC_11.wav,5df216021d6b46119b5b5db9,2021-02-04_06h14.06.555,Spanish_step2,2020.2.3,Win32,60,,,right,0.450515,2,5,27,10,1,,,,,,,,,,,,,,,,,,,,,,,
,,,,,,,stim/VC_06.wav,5df216021d6b46119b5b5db9,2021-02-04_06h14.06.555,Spanish_step2,2020.2.3,Win32,60,,,right,1.225965,2,6,28,5,1,,,,,,,,,,,,,,,,,,,,,,,
,,,,,,,stim/VC_05.wav,5df216021d6b46119b5b5db9,2021-02-04_06h14.06.555,Spanish_step2,2020.2.3,Win32,60,,,right,1.79408,2,7,29,4,1,,,,,,,,,,,,,,,,,,,,,,,
,,,,,,,stim/VC_01.wav,5df216021d6b46119b5b5db9,2021-02-04_06h14.06.555,Spanish_step2,2020.2.3,Win32,60,,,left,0.69312,2,8,30,0,1,,,,,,,,,,,,,,,,,,,,,,,
,,,,,,,stim/VC_02.wav,5df216021d6b46119b5b5db9,2021-02-04_06h14.06.555,Spanish_step2,2020.2.3,Win32,60,,,left,0.81995,2,9,31,1,1,,,,,,,,,,,,,,,,,,,,,,,
,,,,,,,stim/VC_07.wav,5df216021d6b46119b5b5db9,2021-02-04_06h14.06.555,Spanish_step2,2020.2.3,Win32,60,,,right,1.517765,2,10,32,6,1,,,,,,,,,,,,,,,,,,,,,,,
,,,,,,,stim/VC_09.wav,5df216021d6b46119b5b5db9,2021-02-04_06h14.06.555,Spanish_step2,2020.2.3,Win32,60,,,right,0.845315,,,,,,7,6.612785,0,0,0,8,1,,,,,,,,,,,,,,,,
,,,,,,,stim/VC_10.wav,5df216021d6b46119b5b5db9,2021-02-04_06h14.06.555,Spanish_step2,2020.2.3,Win32,60,,,right,0.454145,,,,,,,,0,1,1,9,1,,,,,,,,,,,,,,,,
,,,,,,,stim/VC_08.wav,5df216021d6b46119b5b5db9,2021-02-04_06h14.06.555,Spanish_step2,2020.2.3,Win32,60,,,right,0.49485,,,,,,,,0,2,2,7,1,,,,,,,,,,,,,,,,
,,,,,,,stim/VC_03.wav,5df216021d6b46119b5b5db9,2021-02-04_06h14.06.555,Spanish_step2,2020.2.3,Win32,60,,,left,0.852795,,,,,,,,0,3,3,2,1,,,,,,,,,,,,,,,,
,,,,,,,stim/VC_11.wav,5df216021d6b46119b5b5db9,2021-02-04_06h14.06.555,Spanish_step2,2020.2.3,Win32,60,,,right,0.621405,,,,,,,,0,4,4,10,1,,,,,,,,,,,,,,,,
,,,,,,,stim/VC_05.wav,5df216021d6b46119b5b5db9,2021-02-04_06h14.06.555,Spanish_step2,2020.2.3,Win32,60,,,right,0.846825,,,,,,,,0,5,5,4,1,,,,,,,,,,,,,,,,
,,,,,,,stim/VC_02.wav,5df216021d6b46119b5b5db9,2021-02-04_06h14.06.555,Spanish_step2,2020.2.3,Win32,60,,,left,1.510875,,,,,,,,0,6,6,1,1,,,,,,,,,,,,,,,,
,,,,,,,stim/VC_01.wav,5df216021d6b46119b5b5db9,2021-02-04_06h14.06.555,Spanish_step2,2020.2.3,Win32,60,,,left,2.164785,,,,,,,,0,7,7,0,1,,,,,,,,,,,,,,,,
,,,,,,,stim/VC_06.wav,5df216021d6b46119b5b5db9,2021-02-04_06h14.06.555,Spanish_step2,2020.2.3,Win32,60,,,left,10.377165,,,,,,,,0,8,8,5,1,,,,,,,,,,,,,,,,
,,,,,,,stim/VC_04.wav,5df216021d6b46119b5b5db9,2021-02-04_06h14.06.555,Spanish_step2,2020.2.3,Win32,60,,,right,0.846705,,,,,,,,0,9,9,3,1,,,,,,,,,,,,,,,,
,,,,,,,stim/VC_07.wav,5df216021d6b46119b5b5db9,2021-02-04_06h14.06.555,Spanish_step2,2020.2.3,Win32,60,,,right,1.03183,,,,,,,,0,10,10,6,1,,,,,,,,,,,,,,,,
,,,,,,,stim/VC_07.wav,5df216021d6b46119b5b5db9,2021-02-04_06h14.06.555,Spanish_step2,2020.2.3,Win32,60,,,right,12.524525,,,,,,,,1,0,11,6,1,,,,,,,,,,,,,,,,
,,,,,,,stim/VC_08.wav,5df216021d6b46119b5b5db9,2021-02-04_06h14.06.555,Spanish_step2,2020.2.3,Win32,60,,,right,0.584775,,,,,,,,1,1,12,7,1,,,,,,,,,,,,,,,,
,,,,,,,stim/VC_06.wav,5df216021d6b46119b5b5db9,2021-02-04_06h14.06.555,Spanish_step2,2020.2.3,Win32,60,,,right,0.76356,,,,,,,,1,2,13,5,1,,,,,,,,,,,,,,,,
,,,,,,,stim/VC_10.wav,5df216021d6b46119b5b5db9,2021-02-04_06h14.06.555,Spanish_step2,2020.2.3,Win32,60,,,right,0.695625,,,,,,,,1,3,14,9,1,,,,,,,,,,,,,,,,
,,,,,,,stim/VC_09.wav,5df216021d6b46119b5b5db9,2021-02-04_06h14.06.555,Spanish_step2,2020.2.3,Win32,60,,,right,0.56691,,,,,,,,1,4,15,8,1,,,,,,,,,,,,,,,,
,,,,,,,stim/VC_02.wav,5df216021d6b46119b5b5db9,2021-02-04_06h14.06.555,Spanish_step2,2020.2.3,Win32,60,,,left,0.569715,,,,,,,,1,5,16,1,1,,,,,,,,,,,,,,,,
,,,,,,,stim/VC_03.wav,5df216021d6b46119b5b5db9,2021-02-04_06h14.06.555,Spanish_step2,2020.2.3,Win32,60,,,left,0.55805,,,,,,,,1,6,17,2,1,,,,,,,,,,,,,,,,
,,,,,,,stim/VC_01.wav,5df216021d6b46119b5b5db9,2021-02-04_06h14.06.555,Spanish_step2,2020.2.3,Win32,60,,,left,0.546395,,,,,,,,1,7,18,0,1,,,,,,,,,,,,,,,,
,,,,,,,stim/VC_04.wav,5df216021d6b46119b5b5db9,2021-02-04_06h14.06.555,Spanish_step2,2020.2.3,Win32,60,,,right,0.87031,,,,,,,,1,8,19,3,1,,,,,,,,,,,,,,,,
,,,,,,,stim/VC_11.wav,5df216021d6b46119b5b5db9,2021-02-04_06h14.06.555,Spanish_step2,2020.2.3,Win32,60,,,right,0.76795,,,,,,,,1,9,20,10,1,,,,,,,,,,,,,,,,
,,,,,,,stim/VC_05.wav,5df216021d6b46119b5b5db9,2021-02-04_06h14.06.555,Spanish_step2,2020.2.3,Win32,60,,,right,0.841585,,,,,,,,1,10,21,4,1,,,,,,,,,,,,,,,,
,,,,,,,stim2/pa-30.wav,5df216021d6b46119b5b5db9,2021-02-04_06h14.06.555,Spanish_step2,2020.2.3,Win32,60,,,,,,,,,,,,,,,,,left,1.16641,0,0,0,15,1,,,,,,,,,
,,,,,,,stim2/pa+10.wav,5df216021d6b46119b5b5db9,2021-02-04_06h14.06.555,Spanish_step2,2020.2.3,Win32,60,,,,,,,,,,,,,,,,,right,0.92825,0,1,1,1,1,,,,,,,,,
,,,,,,,stim2/pa-15.wav,5df216021d6b46119b5b5db9,2021-02-04_06h14.06.555,Spanish_step2,2020.2.3,Win32,60,,,,,,,,,,,,,,,,,right,0.662115,0,2,2,12,1,,,,,,,,,
,,,,,,,stim2/pa+15.wav,5df216021d6b46119b5b5db9,2021-02-04_06h14.06.555,Spanish_step2,2020.2.3,Win32,60,,,,,,,,,,,,,,,,,left,0.662405,0,3,3,2,1,,,,,,,,,
,,,,,,,stim2/pa-25.wav,5df216021d6b46119b5b5db9,2021-02-04_06h14.06.555,Spanish_step2,2020.2.3,Win32,60,,,,,,,,,,,,,,,,,right,0.567325,0,4,4,14,1,,,,,,,,,
,,,,,,,stim2/pa-10.wav,5df216021d6b46119b5b5db9,2021-02-04_06h14.06.555,Spanish_step2,2020.2.3,Win32,60,,,,,,,,,,,,,,,,,right,0.683585,0,5,5,11,1,,,,,,,,,
,,,,,,,stim2/pa+35.wav,5df216021d6b46119b5b5db9,2021-02-04_06h14.06.555,Spanish_step2,2020.2.3,Win32,60,,,,,,,,,,,,,,,,,left,0.53591,0,6,6,6,1,,,,,,,,,
,,,,,,,stim2/pa+30.wav,5df216021d6b46119b5b5db9,2021-02-04_06h14.06.555,Spanish_step2,2020.2.3,Win32,60,,,,,,,,,,,,,,,,,left,0.604785,0,7,7,5,1,,,,,,,,,
,,,,,,,stim2/pa+40.wav,5df216021d6b46119b5b5db9,2021-02-04_06h14.06.555,Spanish_step2,2020.2.3,Win32,60,,,,,,,,,,,,,,,,,left,0.86283,0,8,8,7,1,,,,,,,,,
,,,,,,,stim2/pa+20.wav,5df216021d6b46119b5b5db9,2021-02-04_06h14.06.555,Spanish_step2,2020.2.3,Win32,60,,,,,,,,,,,,,,,,,left,1.351915,0,9,9,3,1,,,,,,,,,
,,,,,,,stim2/pa-05.wav,5df216021d6b46119b5b5db9,2021-02-04_06h14.06.555,Spanish_step2,2020.2.3,Win32,60,,,,,,,,,,,,,,,,,right,0.650745,0,10,10,10,1,,,,,,,,,
,,,,,,,stim2/pa-35.wav,5df216021d6b46119b5b5db9,2021-02-04_06h14.06.555,Spanish_step2,2020.2.3,Win32,60,,,,,,,,,,,,,,,,,right,0.459,0,11,11,16,1,,,,,,,,,
,,,,,,,stim2/pa+45.wav,5df216021d6b46119b5b5db9,2021-02-04_06h14.06.555,Spanish_step2,2020.2.3,Win32,60,,,,,,,,,,,,,,,,,right,0.46695,0,12,12,8,1,,,,,,,,,
,,,,,,,stim2/pa+50.wav,5df216021d6b46119b5b5db9,2021-02-04_06h14.06.555,Spanish_step2,2020.2.3,Win32,60,,,,,,,,,,,,,,,,,right,0.426315,0,13,13,9,1,,,,,,,,,
,,,,,,,stim2/pa-20.wav,5df216021d6b46119b5b5db9,2021-02-04_06h14.06.555,Spanish_step2,2020.2.3,Win32,60,,,,,,,,,,,,,,,,,right,0.389325,0,14,14,13,1,,,,,,,,,
,,,,,,,stim2/pa+25.wav,5df216021d6b46119b5b5db9,2021-02-04_06h14.06.555,Spanish_step2,2020.2.3,Win32,60,,,,,,,,,,,,,,,,,right,0.384965,0,15,15,4,1,,,,,,,,,
,,,,,,,stim2/pa+05.wav,5df216021d6b46119b5b5db9,2021-02-04_06h14.06.555,Spanish_step2,2020.2.3,Win32,60,,,,,,,,,,,,,,,,,left,1.689255,0,16,16,0,1,,,,,,,,,
,,,,,,,stim2/pa+05.wav,5df216021d6b46119b5b5db9,2021-02-04_06h14.06.555,Spanish_step2,2020.2.3,Win32,60,,,,,,,,,,,,,,,,,left,1.601725,1,0,17,0,1,,,,,,,,,
,,,,,,,stim2/pa+50.wav,5df216021d6b46119b5b5db9,2021-02-04_06h14.06.555,Spanish_step2,2020.2.3,Win32,60,,,,,,,,,,,,,,,,,left,0.58584,1,1,18,9,1,,,,,,,,,
,,,,,,,stim2/pa-05.wav,5df216021d6b46119b5b5db9,2021-02-04_06h14.06.555,Spanish_step2,2020.2.3,Win32,60,,,,,,,,,,,,,,,,,right,0.76469,1,2,19,10,1,,,,,,,,,
,,,,,,,stim2/pa+45.wav,5df216021d6b46119b5b5db9,2021-02-04_06h14.06.555,Spanish_step2,2020.2.3,Win32,60,,,,,,,,,,,,,,,,,right,0.48839,1,3,20,8,1,,,,,,,,,
,,,,,,,stim2/pa+15.wav,5df216021d6b46119b5b5db9,2021-02-04_06h14.06.555,Spanish_step2,2020.2.3,Win32,60,,,,,,,,,,,,,,,,,right,0.46332,1,4,21,2,1,,,,,,,,,
,,,,,,,stim2/pa+30.wav,5df216021d6b46119b5b5db9,2021-02-04_06h14.06.555,Spanish_step2,2020.2.3,Win32,60,,,,,,,,,,,,,,,,,right,0.34449,1,5,22,5,1,,,,,,,,,
,,,,,,,stim2/pa+40.wav,5df216021d6b46119b5b5db9,2021-02-04_06h14.06.555,Spanish_step2,2020.2.3,Win32,60,,,,,,,,,,,,,,,,,right,0.388705,1,6,23,7,1,,,,,,,,,
,,,,,,,stim2/pa-15.wav,5df216021d6b46119b5b5db9,2021-02-04_06h14.06.555,Spanish_step2,2020.2.3,Win32,60,,,,,,,,,,,,,,,,,right,0.49615,1,7,24,12,1,,,,,,,,,
,,,,,,,stim2/pa-10.wav,5df216021d6b46119b5b5db9,2021-02-04_06h14.06.555,Spanish_step2,2020.2.3,Win32,60,,,,,,,,,,,,,,,,,right,0.454345,1,8,25,11,1,,,,,,,,,
,,,,,,,stim2/pa-25.wav,5df216021d6b46119b5b5db9,2021-02-04_06h14.06.555,Spanish_step2,2020.2.3,Win32,60,,,,,,,,,,,,,,,,,right,0.41548,1,9,26,14,1,,,,,,,,,
,,,,,,,stim2/pa-20.wav,5df216021d6b46119b5b5db9,2021-02-04_06h14.06.555,Spanish_step2,2020.2.3,Win32,60,,,,,,,,,,,,,,,,,right,0.40912,1,10,27,13,1,,,,,,,,,
,,,,,,,stim2/pa-30.wav,5df216021d6b46119b5b5db9,2021-02-04_06h14.06.555,Spanish_step2,2020.2.3,Win32,60,,,,,,,,,,,,,,,,,right,0.35529,1,11,28,15,1,,,,,,,,,
,,,,,,,stim2/pa+20.wav,5df216021d6b46119b5b5db9,2021-02-04_06h14.06.555,Spanish_step2,2020.2.3,Win32,60,,,,,,,,,,,,,,,,,right,0.28838,1,12,29,3,1,,,,,,,,,
,,,,,,,stim2/pa+10.wav,5df216021d6b46119b5b5db9,2021-02-04_06h14.06.555,Spanish_step2,2020.2.3,Win32,60,,,,,,,,,,,,,,,,,left,0.543145,1,13,30,1,1,,,,,,,,,
,,,,,,,stim2/pa+25.wav,5df216021d6b46119b5b5db9,2021-02-04_06h14.06.555,Spanish_step2,2020.2.3,Win32,60,,,,,,,,,,,,,,,,,left,0.73931,1,14,31,4,1,,,,,,,,,
,,,,,,,stim2/pa-35.wav,5df216021d6b46119b5b5db9,2021-02-04_06h14.06.555,Spanish_step2,2020.2.3,Win32,60,,,,,,,,,,,,,,,,,right,0.81764,1,15,32,16,1,,,,,,,,,
,,,,,,,stim2/pa+35.wav,5df216021d6b46119b5b5db9,2021-02-04_06h14.06.555,Spanish_step2,2020.2.3,Win32,60,,,,,,,,,,,,,,,,,left,0.5533,1,16,33,6,1,,,,,,,,,
,,,,,,,stim2/pa+35.wav,5df216021d6b46119b5b5db9,2021-02-04_06h14.06.555,Spanish_step2,2020.2.3,Win32,60,,,,,,,,,,,,,,,,,left,0.52505,2,0,34,6,1,,,,,,,,,
,,,,,,,stim2/pa+45.wav,5df216021d6b46119b5b5db9,2021-02-04_06h14.06.555,Spanish_step2,2020.2.3,Win32,60,,,,,,,,,,,,,,,,,left,0.450805,2,1,35,8,1,,,,,,,,,
,,,,,,,stim2/pa-25.wav,5df216021d6b46119b5b5db9,2021-02-04_06h14.06.555,Spanish_step2,2020.2.3,Win32,60,,,,,,,,,,,,,,,,,right,0.635215,2,2,36,14,1,,,,,,,,,
,,,,,,,stim2/pa-15.wav,5df216021d6b46119b5b5db9,2021-02-04_06h14.06.555,Spanish_step2,2020.2.3,Win32,60,,,,,,,,,,,,,,,,,right,0.49247,2,3,37,12,1,,,,,,,,,
,,,,,,,stim2/pa+50.wav,5df216021d6b46119b5b5db9,2021-02-04_06h14.06.555,Spanish_step2,2020.2.3,Win32,60,,,,,,,,,,,,,,,,,right,0.46719,2,4,38,9,1,,,,,,,,,
,,,,,,,stim2/pa+30.wav,5df216021d6b46119b5b5db9,2021-02-04_06h14.06.555,Spanish_step2,2020.2.3,Win32,60,,,,,,,,,,,,,,,,,left,1.130925,2,5,39,5,1,,,,,,,,,
,,,,,,,stim2/pa+40.wav,5df216021d6b46119b5b5db9,2021-02-04_06h14.06.555,Spanish_step2,2020.2.3,Win32,60,,,,,,,,,,,,,,,,,left,0.60037,2,6,40,7,1,,,,,,,,,
,,,,,,,stim2/pa-30.wav,5df216021d6b46119b5b5db9,2021-02-04_06h14.06.555,Spanish_step2,2020.2.3,Win32,60,,,,,,,,,,,,,,,,,right,0.60211,2,7,41,15,1,,,,,,,,,
,,,,,,,stim2/pa-10.wav,5df216021d6b46119b5b5db9,2021-02-04_06h14.06.555,Spanish_step2,2020.2.3,Win32,60,,,,,,,,,,,,,,,,,right,0.47563,2,8,42,11,1,,,,,,,,,
,,,,,,,stim2/pa+05.wav,5df216021d6b46119b5b5db9,2021-02-04_06h14.06.555,Spanish_step2,2020.2.3,Win32,60,,,,,,,,,,,,,,,,,left,0.467225,2,9,43,0,1,,,,,,,,,
,,,,,,,stim2/pa+20.wav,5df216021d6b46119b5b5db9,2021-02-04_06h14.06.555,Spanish_step2,2020.2.3,Win32,60,,,,,,,,,,,,,,,,,left,0.71452,2,10,44,3,1,,,,,,,,,
,,,,,,,stim2/pa-05.wav,5df216021d6b46119b5b5db9,2021-02-04_06h14.06.555,Spanish_step2,2020.2.3,Win32,60,,,,,,,,,,,,,,,,,right,0.456485,2,11,45,10,1,,,,,,,,,
,,,,,,,stim2/pa-20.wav,5df216021d6b46119b5b5db9,2021-02-04_06h14.06.555,Spanish_step2,2020.2.3,Win32,60,,,,,,,,,,,,,,,,,right,0.60949,2,12,46,13,1,,,,,,,,,
,,,,,,,stim2/pa-35.wav,5df216021d6b46119b5b5db9,2021-02-04_06h14.06.555,Spanish_step2,2020.2.3,Win32,60,,,,,,,,,,,,,,,,,right,0.78658,2,13,47,16,1,,,,,,,,,
,,,,,,,stim2/pa+15.wav,5df216021d6b46119b5b5db9,2021-02-04_06h14.06.555,Spanish_step2,2020.2.3,Win32,60,,,,,,,,,,,,,,,,,right,0.36733,2,14,48,2,1,,,,,,,,,
,,,,,,,stim2/pa+10.wav,5df216021d6b46119b5b5db9,2021-02-04_06h14.06.555,Spanish_step2,2020.2.3,Win32,60,,,,,,,,,,,,,,,,,right,2.07467,2,15,49,1,1,,,,,,,,,
,,,,,,,stim2/pa+25.wav,5df216021d6b46119b5b5db9,2021-02-04_06h14.06.555,Spanish_step2,2020.2.3,Win32,60,,,,,,,,,,,,,,,,,left,0.544855,2,16,50,4,1,,,,,,,,,
,,,,,,,stim2/pa-05.wav,5df216021d6b46119b5b5db9,2021-02-04_06h14.06.555,Spanish_step2,2020.2.3,Win32,60,,,,,,,,,,,,,,,,,left,1.74432,,,,,,z,2.467315,0,0,0,10,1,,
,,,,,,,stim2/pa+30.wav,5df216021d6b46119b5b5db9,2021-02-04_06h14.06.555,Spanish_step2,2020.2.3,Win32,60,,,,,,,,,,,,,,,,,left,0.756075,,,,,,,,0,1,1,5,1,,
,,,,,,,stim2/pa+40.wav,5df216021d6b46119b5b5db9,2021-02-04_06h14.06.555,Spanish_step2,2020.2.3,Win32,60,,,,,,,,,,,,,,,,,left,0.62415,,,,,,,,0,2,2,7,1,,
,,,,,,,stim2/pa+05.wav,5df216021d6b46119b5b5db9,2021-02-04_06h14.06.555,Spanish_step2,2020.2.3,Win32,60,,,,,,,,,,,,,,,,,right,0.641755,,,,,,,,0,3,3,0,1,,
,,,,,,,stim2/pa+35.wav,5df216021d6b46119b5b5db9,2021-02-04_06h14.06.555,Spanish_step2,2020.2.3,Win32,60,,,,,,,,,,,,,,,,,left,0.707265,,,,,,,,0,4,4,6,1,,
,,,,,,,stim2/pa-30.wav,5df216021d6b46119b5b5db9,2021-02-04_06h14.06.555,Spanish_step2,2020.2.3,Win32,60,,,,,,,,,,,,,,,,,right,0.705,,,,,,,,0,5,5,15,1,,
,,,,,,,stim2/pa+20.wav,5df216021d6b46119b5b5db9,2021-02-04_06h14.06.555,Spanish_step2,2020.2.3,Win32,60,,,,,,,,,,,,,,,,,left,0.495585,,,,,,,,0,6,6,3,1,,
,,,,,,,stim2/pa+10.wav,5df216021d6b46119b5b5db9,2021-02-04_06h14.06.555,Spanish_step2,2020.2.3,Win32,60,,,,,,,,,,,,,,,,,right,0.709635,,,,,,,,0,7,7,1,1,,
,,,,,,,stim2/pa+25.wav,5df216021d6b46119b5b5db9,2021-02-04_06h14.06.555,Spanish_step2,2020.2.3,Win32,60,,,,,,,,,,,,,,,,,left,0.6581,,,,,,,,0,8,8,4,1,,
,,,,,,,stim2/pa+45.wav,5df216021d6b46119b5b5db9,2021-02-04_06h14.06.555,Spanish_step2,2020.2.3,Win32,60,,,,,,,,,,,,,,,,,left,0.611465,,,,,,,,0,9,9,8,1,,
,,,,,,,stim2/pa+15.wav,5df216021d6b46119b5b5db9,2021-02-04_06h14.06.555,Spanish_step2,2020.2.3,Win32,60,,,,,,,,,,,,,,,,,left,0.550895,,,,,,,,0,10,10,2,1,,
,,,,,,,stim2/pa-10.wav,5df216021d6b46119b5b5db9,2021-02-04_06h14.06.555,Spanish_step2,2020.2.3,Win32,60,,,,,,,,,,,,,,,,,right,0.79377,,,,,,,,0,11,11,11,1,,
,,,,,,,stim2/pa-15.wav,5df216021d6b46119b5b5db9,2021-02-04_06h14.06.555,Spanish_step2,2020.2.3,Win32,60,,,,,,,,,,,,,,,,,right,0.628625,,,,,,,,0,12,12,12,1,,
,,,,,,,stim2/pa-35.wav,5df216021d6b46119b5b5db9,2021-02-04_06h14.06.555,Spanish_step2,2020.2.3,Win32,60,,,,,,,,,,,,,,,,,right,0.535845,,,,,,,,0,13,13,16,1,,
,,,,,,,stim2/pa+50.wav,5df216021d6b46119b5b5db9,2021-02-04_06h14.06.555,Spanish_step2,2020.2.3,Win32,60,,,,,,,,,,,,,,,,,left,0.65083,,,,,,,,0,14,14,9,1,,
,,,,,,,stim2/pa-25.wav,5df216021d6b46119b5b5db9,2021-02-04_06h14.06.555,Spanish_step2,2020.2.3,Win32,60,,,,,,,,,,,,,,,,,right,0.586955,,,,,,,,0,15,15,14,1,,
,,,,,,,stim2/pa-20.wav,5df216021d6b46119b5b5db9,2021-02-04_06h14.06.555,Spanish_step2,2020.2.3,Win32,60,,,,,,,,,,,,,,,,,right,0.605865,,,,,,,,0,16,16,13,1,,
,,,,,,,stim2/pa+50.wav,5df216021d6b46119b5b5db9,2021-02-04_06h14.06.555,Spanish_step2,2020.2.3,Win32,60,,,,,,,,,,,,,,,,,left,0.575955,,,,,,,,1,0,17,9,1,,
,,,,,,,stim2/pa+45.wav,5df216021d6b46119b5b5db9,2021-02-04_06h14.06.555,Spanish_step2,2020.2.3,Win32,60,,,,,,,,,,,,,,,,,left,0.659145,,,,,,,,1,1,18,8,1,,
,,,,,,,stim2/pa+15.wav,5df216021d6b46119b5b5db9,2021-02-04_06h14.06.555,Spanish_step2,2020.2.3,Win32,60,,,,,,,,,,,,,,,,,right,0.43544,,,,,,,,1,2,19,2,1,,
,,,,,,,stim2/pa-30.wav,5df216021d6b46119b5b5db9,2021-02-04_06h14.06.555,Spanish_step2,2020.2.3,Win32,60,,,,,,,,,,,,,,,,,right,0.46058,,,,,,,,1,3,20,15,1,,
,,,,,,,stim2/pa+25.wav,5df216021d6b46119b5b5db9,2021-02-04_06h14.06.555,Spanish_step2,2020.2.3,Win32,60,,,,,,,,,,,,,,,,,left,0.56466,,,,,,,,1,4,21,4,1,,
,,,,,,,stim2/pa+40.wav,5df216021d6b46119b5b5db9,2021-02-04_06h14.06.555,Spanish_step2,2020.2.3,Win32,60,,,,,,,,,,,,,,,,,left,0.50516,,,,,,,,1,5,22,7,1,,
,,,,,,,stim2/pa-35.wav,5df216021d6b46119b5b5db9,2021-02-04_06h14.06.555,Spanish_step2,2020.2.3,Win32,60,,,,,,,,,,,,,,,,,right,0.560065,,,,,,,,1,6,23,16,1,,
,,,,,,,stim2/pa+05.wav,5df216021d6b46119b5b5db9,2021-02-04_06h14.06.555,Spanish_step2,2020.2.3,Win32,60,,,,,,,,,,,,,,,,,left,0.963625,,,,,,,,1,7,24,0,1,,
,,,,,,,stim2/pa-10.wav,5df216021d6b46119b5b5db9,2021-02-04_06h14.06.555,Spanish_step2,2020.2.3,Win32,60,,,,,,,,,,,,,,,,,right,0.47125,,,,,,,,1,8,25,11,1,,
,,,,,,,stim2/pa+10.wav,5df216021d6b46119b5b5db9,2021-02-04_06h14.06.555,Spanish_step2,2020.2.3,Win32,60,,,,,,,,,,,,,,,,,left,0.65456,,,,,,,,1,9,26,1,1,,
,,,,,,,stim2/pa-05.wav,5df216021d6b46119b5b5db9,2021-02-04_06h14.06.555,Spanish_step2,2020.2.3,Win32,60,,,,,,,,,,,,,,,,,right,0.47866,,,,,,,,1,10,27,10,1,,
,,,,,,,stim2/pa-25.wav,5df216021d6b46119b5b5db9,2021-02-04_06h14.06.555,Spanish_step2,2020.2.3,Win32,60,,,,,,,,,,,,,,,,,right,0.79022,,,,,,,,1,11,28,14,1,,
,,,,,,,stim2/pa+35.wav,5df216021d6b46119b5b5db9,2021-02-04_06h14.06.555,Spanish_step2,2020.2.3,Win32,60,,,,,,,,,,,,,,,,,left,0.56132,,,,,,,,1,12,29,6,1,,
,,,,,,,stim2/pa-15.wav,5df216021d6b46119b5b5db9,2021-02-04_06h14.06.555,Spanish_step2,2020.2.3,Win32,60,,,,,,,,,,,,,,,,,right,0.88545,,,,,,,,1,13,30,12,1,,
,,,,,,,stim2/pa+20.wav,5df216021d6b46119b5b5db9,2021-02-04_06h14.06.555,Spanish_step2,2020.2.3,Win32,60,,,,,,,,,,,,,,,,,left,0.636145,,,,,,,,1,14,31,3,1,,
,,,,,,,stim2/pa-20.wav,5df216021d6b46119b5b5db9,2021-02-04_06h14.06.555,Spanish_step2,2020.2.3,Win32,60,,,,,,,,,,,,,,,,,right,0.653405,,,,,,,,1,15,32,13,1,,
,,,,,,,stim2/pa+30.wav,5df216021d6b46119b5b5db9,2021-02-04_06h14.06.555,Spanish_step2,2020.2.3,Win32,60,,,,,,,,,,,,,,,,,left,0.604345,,,,,,,,1,16,33,5,1,,
,,,,,,,,5df216021d6b46119b5b5db9,2021-02-04_06h14.06.555,Spanish_step2,2020.2.3,Win32,60,,,,,,,,,,,,,,,,,,,,,,,,,,,,,,,space,6.32652
