resp.keys,resp.rt,trials.thisRepN,trials.thisTrialN,trials.thisN,trials.thisIndex,trials.ran,stimuli,participant,date,expName,psychopyVersion,OS,frameRate,gotResponse.keys,gotResponse.rt,resp_2.keys,resp_2.rt,trials_2.thisRepN,trials_2.thisTrialN,trials_2.thisN,trials_2.thisIndex,trials_2.ran,key_resp_3.keys,key_resp_3.rt,trials_4.thisRepN,trials_4.thisTrialN,trials_4.thisN,trials_4.thisIndex,trials_4.ran,resp_3.keys,resp_3.rt,trials_3.thisRepN,trials_3.thisTrialN,trials_3.thisN,trials_3.thisIndex,trials_3.ran,key_resp_2.keys,key_resp_2.rt,trials_5.thisRepN,trials_5.thisTrialN,trials_5.thisN,trials_5.thisIndex,trials_5.ran,key_resp.keys,key_resp.rt
left,1.14144,0,0,0,0,1,stim/VC_01.wav,5e9133f704391d46ee2bcb31,2021-01-20_15h37.13.137,Spanish_step2,2020.2.3,Win32,60,,,,,,,,,,,,,,,,,,,,,,,,,,,,,,,,
right,1.15672,0,1,1,1,1,stim/VC_11.wav,5e9133f704391d46ee2bcb31,2021-01-20_15h37.13.137,Spanish_step2,2020.2.3,Win32,60,,,,,,,,,,,,,,,,,,,,,,,,,,,,,,,,
,,,,,,,stim/VC_11.wav,5e9133f704391d46ee2bcb31,2021-01-20_15h37.13.137,Spanish_step2,2020.2.3,Win32,60,space,2.016415,right,0.928275,0,0,0,10,1,,,,,,,,,,,,,,,,,,,,,,,
,,,,,,,stim/VC_05.wav,5e9133f704391d46ee2bcb31,2021-01-20_15h37.13.137,Spanish_step2,2020.2.3,Win32,60,,,right,1.570065,0,1,1,4,1,,,,,,,,,,,,,,,,,,,,,,,
,,,,,,,stim/VC_03.wav,5e9133f704391d46ee2bcb31,2021-01-20_15h37.13.137,Spanish_step2,2020.2.3,Win32,60,,,left,0.6532,0,2,2,2,1,,,,,,,,,,,,,,,,,,,,,,,
,,,,,,,stim/VC_07.wav,5e9133f704391d46ee2bcb31,2021-01-20_15h37.13.137,Spanish_step2,2020.2.3,Win32,60,,,right,0.716935,0,3,3,6,1,,,,,,,,,,,,,,,,,,,,,,,
,,,,,,,stim/VC_04.wav,5e9133f704391d46ee2bcb31,2021-01-20_15h37.13.137,Spanish_step2,2020.2.3,Win32,60,,,right,0.966565,0,4,4,3,1,,,,,,,,,,,,,,,,,,,,,,,
,,,,,,,stim/VC_01.wav,5e9133f704391d46ee2bcb31,2021-01-20_15h37.13.137,Spanish_step2,2020.2.3,Win32,60,,,left,0.576255,0,5,5,0,1,,,,,,,,,,,,,,,,,,,,,,,
,,,,,,,stim/VC_06.wav,5e9133f704391d46ee2bcb31,2021-01-20_15h37.13.137,Spanish_step2,2020.2.3,Win32,60,,,right,0.73701,0,6,6,5,1,,,,,,,,,,,,,,,,,,,,,,,
,,,,,,,stim/VC_09.wav,5e9133f704391d46ee2bcb31,2021-01-20_15h37.13.137,Spanish_step2,2020.2.3,Win32,60,,,right,0.60636,0,7,7,8,1,,,,,,,,,,,,,,,,,,,,,,,
,,,,,,,stim/VC_08.wav,5e9133f704391d46ee2bcb31,2021-01-20_15h37.13.137,Spanish_step2,2020.2.3,Win32,60,,,right,0.55117,0,8,8,7,1,,,,,,,,,,,,,,,,,,,,,,,
,,,,,,,stim/VC_10.wav,5e9133f704391d46ee2bcb31,2021-01-20_15h37.13.137,Spanish_step2,2020.2.3,Win32,60,,,right,0.485855,0,9,9,9,1,,,,,,,,,,,,,,,,,,,,,,,
,,,,,,,stim/VC_02.wav,5e9133f704391d46ee2bcb31,2021-01-20_15h37.13.137,Spanish_step2,2020.2.3,Win32,60,,,left,0.572695,0,10,10,1,1,,,,,,,,,,,,,,,,,,,,,,,
,,,,,,,stim/VC_02.wav,5e9133f704391d46ee2bcb31,2021-01-20_15h37.13.137,Spanish_step2,2020.2.3,Win32,60,,,left,0.59149,1,0,11,1,1,,,,,,,,,,,,,,,,,,,,,,,
,,,,,,,stim/VC_01.wav,5e9133f704391d46ee2bcb31,2021-01-20_15h37.13.137,Spanish_step2,2020.2.3,Win32,60,,,left,0.60853,1,1,12,0,1,,,,,,,,,,,,,,,,,,,,,,,
,,,,,,,stim/VC_10.wav,5e9133f704391d46ee2bcb31,2021-01-20_15h37.13.137,Spanish_step2,2020.2.3,Win32,60,,,right,0.592875,1,2,13,9,1,,,,,,,,,,,,,,,,,,,,,,,
,,,,,,,stim/VC_09.wav,5e9133f704391d46ee2bcb31,2021-01-20_15h37.13.137,Spanish_step2,2020.2.3,Win32,60,,,right,0.58746,1,3,14,8,1,,,,,,,,,,,,,,,,,,,,,,,
,,,,,,,stim/VC_03.wav,5e9133f704391d46ee2bcb31,2021-01-20_15h37.13.137,Spanish_step2,2020.2.3,Win32,60,,,left,0.61694,1,4,15,2,1,,,,,,,,,,,,,,,,,,,,,,,
,,,,,,,stim/VC_06.wav,5e9133f704391d46ee2bcb31,2021-01-20_15h37.13.137,Spanish_step2,2020.2.3,Win32,60,,,right,0.58475,1,5,16,5,1,,,,,,,,,,,,,,,,,,,,,,,
,,,,,,,stim/VC_05.wav,5e9133f704391d46ee2bcb31,2021-01-20_15h37.13.137,Spanish_step2,2020.2.3,Win32,60,,,right,0.64764,1,6,17,4,1,,,,,,,,,,,,,,,,,,,,,,,
,,,,,,,stim/VC_11.wav,5e9133f704391d46ee2bcb31,2021-01-20_15h37.13.137,Spanish_step2,2020.2.3,Win32,60,,,right,0.553135,1,7,18,10,1,,,,,,,,,,,,,,,,,,,,,,,
,,,,,,,stim/VC_04.wav,5e9133f704391d46ee2bcb31,2021-01-20_15h37.13.137,Spanish_step2,2020.2.3,Win32,60,,,right,0.773085,1,8,19,3,1,,,,,,,,,,,,,,,,,,,,,,,
,,,,,,,stim/VC_07.wav,5e9133f704391d46ee2bcb31,2021-01-20_15h37.13.137,Spanish_step2,2020.2.3,Win32,60,,,right,0.525945,1,9,20,6,1,,,,,,,,,,,,,,,,,,,,,,,
,,,,,,,stim/VC_08.wav,5e9133f704391d46ee2bcb31,2021-01-20_15h37.13.137,Spanish_step2,2020.2.3,Win32,60,,,right,0.52313,1,10,21,7,1,,,,,,,,,,,,,,,,,,,,,,,
,,,,,,,stim/VC_03.wav,5e9133f704391d46ee2bcb31,2021-01-20_15h37.13.137,Spanish_step2,2020.2.3,Win32,60,,,left,0.91049,2,0,22,2,1,,,,,,,,,,,,,,,,,,,,,,,
,,,,,,,stim/VC_07.wav,5e9133f704391d46ee2bcb31,2021-01-20_15h37.13.137,Spanish_step2,2020.2.3,Win32,60,,,right,0.5347,2,1,23,6,1,,,,,,,,,,,,,,,,,,,,,,,
,,,,,,,stim/VC_06.wav,5e9133f704391d46ee2bcb31,2021-01-20_15h37.13.137,Spanish_step2,2020.2.3,Win32,60,,,right,0.72122,2,2,24,5,1,,,,,,,,,,,,,,,,,,,,,,,
,,,,,,,stim/VC_08.wav,5e9133f704391d46ee2bcb31,2021-01-20_15h37.13.137,Spanish_step2,2020.2.3,Win32,60,,,right,0.53984,2,3,25,7,1,,,,,,,,,,,,,,,,,,,,,,,
,,,,,,,stim/VC_05.wav,5e9133f704391d46ee2bcb31,2021-01-20_15h37.13.137,Spanish_step2,2020.2.3,Win32,60,,,right,0.50657,2,4,26,4,1,,,,,,,,,,,,,,,,,,,,,,,
,,,,,,,stim/VC_04.wav,5e9133f704391d46ee2bcb31,2021-01-20_15h37.13.137,Spanish_step2,2020.2.3,Win32,60,,,right,0.561755,2,5,27,3,1,,,,,,,,,,,,,,,,,,,,,,,
,,,,,,,stim/VC_10.wav,5e9133f704391d46ee2bcb31,2021-01-20_15h37.13.137,Spanish_step2,2020.2.3,Win32,60,,,right,0.4917,2,6,28,9,1,,,,,,,,,,,,,,,,,,,,,,,
,,,,,,,stim/VC_01.wav,5e9133f704391d46ee2bcb31,2021-01-20_15h37.13.137,Spanish_step2,2020.2.3,Win32,60,,,left,0.63658,2,7,29,0,1,,,,,,,,,,,,,,,,,,,,,,,
,,,,,,,stim/VC_02.wav,5e9133f704391d46ee2bcb31,2021-01-20_15h37.13.137,Spanish_step2,2020.2.3,Win32,60,,,left,0.511115,2,8,30,1,1,,,,,,,,,,,,,,,,,,,,,,,
,,,,,,,stim/VC_11.wav,5e9133f704391d46ee2bcb31,2021-01-20_15h37.13.137,Spanish_step2,2020.2.3,Win32,60,,,right,0.611965,2,9,31,10,1,,,,,,,,,,,,,,,,,,,,,,,
,,,,,,,stim/VC_09.wav,5e9133f704391d46ee2bcb31,2021-01-20_15h37.13.137,Spanish_step2,2020.2.3,Win32,60,,,right,0.449845,2,10,32,8,1,,,,,,,,,,,,,,,,,,,,,,,
,,,,,,,stim/VC_03.wav,5e9133f704391d46ee2bcb31,2021-01-20_15h37.13.137,Spanish_step2,2020.2.3,Win32,60,,,left,0.850845,,,,,,7,3.199265,0,0,0,2,1,,,,,,,,,,,,,,,,
,,,,,,,stim/VC_01.wav,5e9133f704391d46ee2bcb31,2021-01-20_15h37.13.137,Spanish_step2,2020.2.3,Win32,60,,,left,0.96572,,,,,,,,0,1,1,0,1,,,,,,,,,,,,,,,,
,,,,,,,stim/VC_06.wav,5e9133f704391d46ee2bcb31,2021-01-20_15h37.13.137,Spanish_step2,2020.2.3,Win32,60,,,right,0.666645,,,,,,,,0,2,2,5,1,,,,,,,,,,,,,,,,
,,,,,,,stim/VC_07.wav,5e9133f704391d46ee2bcb31,2021-01-20_15h37.13.137,Spanish_step2,2020.2.3,Win32,60,,,right,0.75153,,,,,,,,0,3,3,6,1,,,,,,,,,,,,,,,,
,,,,,,,stim/VC_08.wav,5e9133f704391d46ee2bcb31,2021-01-20_15h37.13.137,Spanish_step2,2020.2.3,Win32,60,,,right,0.57237,,,,,,,,0,4,4,7,1,,,,,,,,,,,,,,,,
,,,,,,,stim/VC_05.wav,5e9133f704391d46ee2bcb31,2021-01-20_15h37.13.137,Spanish_step2,2020.2.3,Win32,60,,,right,0.45194,,,,,,,,0,5,5,4,1,,,,,,,,,,,,,,,,
,,,,,,,stim/VC_02.wav,5e9133f704391d46ee2bcb31,2021-01-20_15h37.13.137,Spanish_step2,2020.2.3,Win32,60,,,left,0.901555,,,,,,,,0,6,6,1,1,,,,,,,,,,,,,,,,
,,,,,,,stim/VC_10.wav,5e9133f704391d46ee2bcb31,2021-01-20_15h37.13.137,Spanish_step2,2020.2.3,Win32,60,,,right,0.56704,,,,,,,,0,7,7,9,1,,,,,,,,,,,,,,,,
,,,,,,,stim/VC_11.wav,5e9133f704391d46ee2bcb31,2021-01-20_15h37.13.137,Spanish_step2,2020.2.3,Win32,60,,,right,0.667055,,,,,,,,0,8,8,10,1,,,,,,,,,,,,,,,,
,,,,,,,stim/VC_04.wav,5e9133f704391d46ee2bcb31,2021-01-20_15h37.13.137,Spanish_step2,2020.2.3,Win32,60,,,right,1.039735,,,,,,,,0,9,9,3,1,,,,,,,,,,,,,,,,
,,,,,,,stim/VC_09.wav,5e9133f704391d46ee2bcb31,2021-01-20_15h37.13.137,Spanish_step2,2020.2.3,Win32,60,,,right,0.81062,,,,,,,,0,10,10,8,1,,,,,,,,,,,,,,,,
,,,,,,,stim/VC_08.wav,5e9133f704391d46ee2bcb31,2021-01-20_15h37.13.137,Spanish_step2,2020.2.3,Win32,60,,,right,0.602255,,,,,,,,1,0,11,7,1,,,,,,,,,,,,,,,,
,,,,,,,stim/VC_03.wav,5e9133f704391d46ee2bcb31,2021-01-20_15h37.13.137,Spanish_step2,2020.2.3,Win32,60,,,left,0.65442,,,,,,,,1,1,12,2,1,,,,,,,,,,,,,,,,
,,,,,,,stim/VC_11.wav,5e9133f704391d46ee2bcb31,2021-01-20_15h37.13.137,Spanish_step2,2020.2.3,Win32,60,,,right,0.56992,,,,,,,,1,2,13,10,1,,,,,,,,,,,,,,,,
,,,,,,,stim/VC_04.wav,5e9133f704391d46ee2bcb31,2021-01-20_15h37.13.137,Spanish_step2,2020.2.3,Win32,60,,,right,1.007485,,,,,,,,1,3,14,3,1,,,,,,,,,,,,,,,,
,,,,,,,stim/VC_09.wav,5e9133f704391d46ee2bcb31,2021-01-20_15h37.13.137,Spanish_step2,2020.2.3,Win32,60,,,right,0.57332,,,,,,,,1,4,15,8,1,,,,,,,,,,,,,,,,
,,,,,,,stim/VC_05.wav,5e9133f704391d46ee2bcb31,2021-01-20_15h37.13.137,Spanish_step2,2020.2.3,Win32,60,,,right,0.673505,,,,,,,,1,5,16,4,1,,,,,,,,,,,,,,,,
,,,,,,,stim/VC_02.wav,5e9133f704391d46ee2bcb31,2021-01-20_15h37.13.137,Spanish_step2,2020.2.3,Win32,60,,,left,0.6593,,,,,,,,1,6,17,1,1,,,,,,,,,,,,,,,,
,,,,,,,stim/VC_07.wav,5e9133f704391d46ee2bcb31,2021-01-20_15h37.13.137,Spanish_step2,2020.2.3,Win32,60,,,right,0.535515,,,,,,,,1,7,18,6,1,,,,,,,,,,,,,,,,
,,,,,,,stim/VC_06.wav,5e9133f704391d46ee2bcb31,2021-01-20_15h37.13.137,Spanish_step2,2020.2.3,Win32,60,,,right,0.48368,,,,,,,,1,8,19,5,1,,,,,,,,,,,,,,,,
,,,,,,,stim/VC_01.wav,5e9133f704391d46ee2bcb31,2021-01-20_15h37.13.137,Spanish_step2,2020.2.3,Win32,60,,,left,0.84463,,,,,,,,1,9,20,0,1,,,,,,,,,,,,,,,,
,,,,,,,stim/VC_10.wav,5e9133f704391d46ee2bcb31,2021-01-20_15h37.13.137,Spanish_step2,2020.2.3,Win32,60,,,right,0.467355,,,,,,,,1,10,21,9,1,,,,,,,,,,,,,,,,
,,,,,,,stim2/pa+15.wav,5e9133f704391d46ee2bcb31,2021-01-20_15h37.13.137,Spanish_step2,2020.2.3,Win32,60,,,,,,,,,,,,,,,,,left,1.69122,0,0,0,2,1,,,,,,,,,
,,,,,,,stim2/pa+50.wav,5e9133f704391d46ee2bcb31,2021-01-20_15h37.13.137,Spanish_step2,2020.2.3,Win32,60,,,,,,,,,,,,,,,,,left,1.051965,0,1,1,9,1,,,,,,,,,
,,,,,,,stim2/pa-15.wav,5e9133f704391d46ee2bcb31,2021-01-20_15h37.13.137,Spanish_step2,2020.2.3,Win32,60,,,,,,,,,,,,,,,,,right,0.723415,0,2,2,12,1,,,,,,,,,
,,,,,,,stim2/pa+40.wav,5e9133f704391d46ee2bcb31,2021-01-20_15h37.13.137,Spanish_step2,2020.2.3,Win32,60,,,,,,,,,,,,,,,,,left,0.849545,0,3,3,7,1,,,,,,,,,
,,,,,,,stim2/pa-05.wav,5e9133f704391d46ee2bcb31,2021-01-20_15h37.13.137,Spanish_step2,2020.2.3,Win32,60,,,,,,,,,,,,,,,,,left,0.774085,0,4,4,10,1,,,,,,,,,
,,,,,,,stim2/pa+35.wav,5e9133f704391d46ee2bcb31,2021-01-20_15h37.13.137,Spanish_step2,2020.2.3,Win32,60,,,,,,,,,,,,,,,,,left,0.756905,0,5,5,6,1,,,,,,,,,
,,,,,,,stim2/pa+25.wav,5e9133f704391d46ee2bcb31,2021-01-20_15h37.13.137,Spanish_step2,2020.2.3,Win32,60,,,,,,,,,,,,,,,,,left,0.60177,0,6,6,4,1,,,,,,,,,
,,,,,,,stim2/pa-30.wav,5e9133f704391d46ee2bcb31,2021-01-20_15h37.13.137,Spanish_step2,2020.2.3,Win32,60,,,,,,,,,,,,,,,,,right,0.61852,0,7,7,15,1,,,,,,,,,
,,,,,,,stim2/pa-25.wav,5e9133f704391d46ee2bcb31,2021-01-20_15h37.13.137,Spanish_step2,2020.2.3,Win32,60,,,,,,,,,,,,,,,,,right,0.950075,0,8,8,14,1,,,,,,,,,
,,,,,,,stim2/pa+05.wav,5e9133f704391d46ee2bcb31,2021-01-20_15h37.13.137,Spanish_step2,2020.2.3,Win32,60,,,,,,,,,,,,,,,,,left,1.30864,0,9,9,0,1,,,,,,,,,
,,,,,,,stim2/pa+45.wav,5e9133f704391d46ee2bcb31,2021-01-20_15h37.13.137,Spanish_step2,2020.2.3,Win32,60,,,,,,,,,,,,,,,,,left,0.85591,0,10,10,8,1,,,,,,,,,
,,,,,,,stim2/pa-20.wav,5e9133f704391d46ee2bcb31,2021-01-20_15h37.13.137,Spanish_step2,2020.2.3,Win32,60,,,,,,,,,,,,,,,,,right,0.642105,0,11,11,13,1,,,,,,,,,
,,,,,,,stim2/pa-35.wav,5e9133f704391d46ee2bcb31,2021-01-20_15h37.13.137,Spanish_step2,2020.2.3,Win32,60,,,,,,,,,,,,,,,,,right,0.586055,0,12,12,16,1,,,,,,,,,
,,,,,,,stim2/pa-10.wav,5e9133f704391d46ee2bcb31,2021-01-20_15h37.13.137,Spanish_step2,2020.2.3,Win32,60,,,,,,,,,,,,,,,,,right,0.60321,0,13,13,11,1,,,,,,,,,
,,,,,,,stim2/pa+30.wav,5e9133f704391d46ee2bcb31,2021-01-20_15h37.13.137,Spanish_step2,2020.2.3,Win32,60,,,,,,,,,,,,,,,,,left,0.572315,0,14,14,5,1,,,,,,,,,
,,,,,,,stim2/pa+10.wav,5e9133f704391d46ee2bcb31,2021-01-20_15h37.13.137,Spanish_step2,2020.2.3,Win32,60,,,,,,,,,,,,,,,,,left,0.859825,0,15,15,1,1,,,,,,,,,
,,,,,,,stim2/pa+20.wav,5e9133f704391d46ee2bcb31,2021-01-20_15h37.13.137,Spanish_step2,2020.2.3,Win32,60,,,,,,,,,,,,,,,,,left,1.089565,0,16,16,3,1,,,,,,,,,
,,,,,,,stim2/pa-30.wav,5e9133f704391d46ee2bcb31,2021-01-20_15h37.13.137,Spanish_step2,2020.2.3,Win32,60,,,,,,,,,,,,,,,,,right,0.519275,1,0,17,15,1,,,,,,,,,
,,,,,,,stim2/pa-15.wav,5e9133f704391d46ee2bcb31,2021-01-20_15h37.13.137,Spanish_step2,2020.2.3,Win32,60,,,,,,,,,,,,,,,,,right,0.632905,1,1,18,12,1,,,,,,,,,
,,,,,,,stim2/pa+25.wav,5e9133f704391d46ee2bcb31,2021-01-20_15h37.13.137,Spanish_step2,2020.2.3,Win32,60,,,,,,,,,,,,,,,,,left,0.53905,1,2,19,4,1,,,,,,,,,
,,,,,,,stim2/pa-35.wav,5e9133f704391d46ee2bcb31,2021-01-20_15h37.13.137,Spanish_step2,2020.2.3,Win32,60,,,,,,,,,,,,,,,,,right,0.55849,1,3,20,16,1,,,,,,,,,
,,,,,,,stim2/pa+45.wav,5e9133f704391d46ee2bcb31,2021-01-20_15h37.13.137,Spanish_step2,2020.2.3,Win32,60,,,,,,,,,,,,,,,,,left,0.65275,1,4,21,8,1,,,,,,,,,
,,,,,,,stim2/pa+50.wav,5e9133f704391d46ee2bcb31,2021-01-20_15h37.13.137,Spanish_step2,2020.2.3,Win32,60,,,,,,,,,,,,,,,,,left,0.686045,1,5,22,9,1,,,,,,,,,
,,,,,,,stim2/pa-20.wav,5e9133f704391d46ee2bcb31,2021-01-20_15h37.13.137,Spanish_step2,2020.2.3,Win32,60,,,,,,,,,,,,,,,,,right,0.65965,1,6,23,13,1,,,,,,,,,
,,,,,,,stim2/pa+35.wav,5e9133f704391d46ee2bcb31,2021-01-20_15h37.13.137,Spanish_step2,2020.2.3,Win32,60,,,,,,,,,,,,,,,,,left,2.342835,1,7,24,6,1,,,,,,,,,
,,,,,,,stim2/pa+40.wav,5e9133f704391d46ee2bcb31,2021-01-20_15h37.13.137,Spanish_step2,2020.2.3,Win32,60,,,,,,,,,,,,,,,,,left,0.83778,1,8,25,7,1,,,,,,,,,
,,,,,,,stim2/pa-10.wav,5e9133f704391d46ee2bcb31,2021-01-20_15h37.13.137,Spanish_step2,2020.2.3,Win32,60,,,,,,,,,,,,,,,,,left,2.20059,1,9,26,11,1,,,,,,,,,
,,,,,,,stim2/pa+15.wav,5e9133f704391d46ee2bcb31,2021-01-20_15h37.13.137,Spanish_step2,2020.2.3,Win32,60,,,,,,,,,,,,,,,,,left,0.67648,1,10,27,2,1,,,,,,,,,
,,,,,,,stim2/pa+05.wav,5e9133f704391d46ee2bcb31,2021-01-20_15h37.13.137,Spanish_step2,2020.2.3,Win32,60,,,,,,,,,,,,,,,,,left,0.77321,1,11,28,0,1,,,,,,,,,
,,,,,,,stim2/pa-05.wav,5e9133f704391d46ee2bcb31,2021-01-20_15h37.13.137,Spanish_step2,2020.2.3,Win32,60,,,,,,,,,,,,,,,,,left,0.60324,1,12,29,10,1,,,,,,,,,
,,,,,,,stim2/pa-25.wav,5e9133f704391d46ee2bcb31,2021-01-20_15h37.13.137,Spanish_step2,2020.2.3,Win32,60,,,,,,,,,,,,,,,,,right,0.517945,1,13,30,14,1,,,,,,,,,
,,,,,,,stim2/pa+30.wav,5e9133f704391d46ee2bcb31,2021-01-20_15h37.13.137,Spanish_step2,2020.2.3,Win32,60,,,,,,,,,,,,,,,,,left,1.94962,1,14,31,5,1,,,,,,,,,
,,,,,,,stim2/pa+20.wav,5e9133f704391d46ee2bcb31,2021-01-20_15h37.13.137,Spanish_step2,2020.2.3,Win32,60,,,,,,,,,,,,,,,,,left,1.10836,1,15,32,3,1,,,,,,,,,
,,,,,,,stim2/pa+10.wav,5e9133f704391d46ee2bcb31,2021-01-20_15h37.13.137,Spanish_step2,2020.2.3,Win32,60,,,,,,,,,,,,,,,,,left,0.826765,1,16,33,1,1,,,,,,,,,
,,,,,,,stim2/pa-20.wav,5e9133f704391d46ee2bcb31,2021-01-20_15h37.13.137,Spanish_step2,2020.2.3,Win32,60,,,,,,,,,,,,,,,,,right,0.54213,2,0,34,13,1,,,,,,,,,
,,,,,,,stim2/pa-30.wav,5e9133f704391d46ee2bcb31,2021-01-20_15h37.13.137,Spanish_step2,2020.2.3,Win32,60,,,,,,,,,,,,,,,,,left,6.11598,2,1,35,15,1,,,,,,,,,
,,,,,,,stim2/pa+45.wav,5e9133f704391d46ee2bcb31,2021-01-20_15h37.13.137,Spanish_step2,2020.2.3,Win32,60,,,,,,,,,,,,,,,,,left,1.065815,2,2,36,8,1,,,,,,,,,
,,,,,,,stim2/pa-35.wav,5e9133f704391d46ee2bcb31,2021-01-20_15h37.13.137,Spanish_step2,2020.2.3,Win32,60,,,,,,,,,,,,,,,,,right,0.550425,2,3,37,16,1,,,,,,,,,
,,,,,,,stim2/pa+35.wav,5e9133f704391d46ee2bcb31,2021-01-20_15h37.13.137,Spanish_step2,2020.2.3,Win32,60,,,,,,,,,,,,,,,,,left,1.06125,2,4,38,6,1,,,,,,,,,
,,,,,,,stim2/pa+25.wav,5e9133f704391d46ee2bcb31,2021-01-20_15h37.13.137,Spanish_step2,2020.2.3,Win32,60,,,,,,,,,,,,,,,,,left,2.538045,2,5,39,4,1,,,,,,,,,
,,,,,,,stim2/pa+05.wav,5e9133f704391d46ee2bcb31,2021-01-20_15h37.13.137,Spanish_step2,2020.2.3,Win32,60,,,,,,,,,,,,,,,,,left,1.731825,2,6,40,0,1,,,,,,,,,
,,,,,,,stim2/pa-15.wav,5e9133f704391d46ee2bcb31,2021-01-20_15h37.13.137,Spanish_step2,2020.2.3,Win32,60,,,,,,,,,,,,,,,,,right,0.608,2,7,41,12,1,,,,,,,,,
,,,,,,,stim2/pa+15.wav,5e9133f704391d46ee2bcb31,2021-01-20_15h37.13.137,Spanish_step2,2020.2.3,Win32,60,,,,,,,,,,,,,,,,,left,0.70044,2,8,42,2,1,,,,,,,,,
,,,,,,,stim2/pa+50.wav,5e9133f704391d46ee2bcb31,2021-01-20_15h37.13.137,Spanish_step2,2020.2.3,Win32,60,,,,,,,,,,,,,,,,,left,0.98678,2,9,43,9,1,,,,,,,,,
,,,,,,,stim2/pa+20.wav,5e9133f704391d46ee2bcb31,2021-01-20_15h37.13.137,Spanish_step2,2020.2.3,Win32,60,,,,,,,,,,,,,,,,,left,0.77235,2,10,44,3,1,,,,,,,,,
,,,,,,,stim2/pa-25.wav,5e9133f704391d46ee2bcb31,2021-01-20_15h37.13.137,Spanish_step2,2020.2.3,Win32,60,,,,,,,,,,,,,,,,,right,0.70067,2,11,45,14,1,,,,,,,,,
,,,,,,,stim2/pa+30.wav,5e9133f704391d46ee2bcb31,2021-01-20_15h37.13.137,Spanish_step2,2020.2.3,Win32,60,,,,,,,,,,,,,,,,,left,0.70112,2,12,46,5,1,,,,,,,,,
,,,,,,,stim2/pa+10.wav,5e9133f704391d46ee2bcb31,2021-01-20_15h37.13.137,Spanish_step2,2020.2.3,Win32,60,,,,,,,,,,,,,,,,,right,0.79412,2,13,47,1,1,,,,,,,,,
,,,,,,,stim2/pa+40.wav,5e9133f704391d46ee2bcb31,2021-01-20_15h37.13.137,Spanish_step2,2020.2.3,Win32,60,,,,,,,,,,,,,,,,,left,0.533805,2,14,48,7,1,,,,,,,,,
,,,,,,,stim2/pa-05.wav,5e9133f704391d46ee2bcb31,2021-01-20_15h37.13.137,Spanish_step2,2020.2.3,Win32,60,,,,,,,,,,,,,,,,,right,0.976735,2,15,49,10,1,,,,,,,,,
,,,,,,,stim2/pa-10.wav,5e9133f704391d46ee2bcb31,2021-01-20_15h37.13.137,Spanish_step2,2020.2.3,Win32,60,,,,,,,,,,,,,,,,,right,0.91569,2,16,50,11,1,,,,,,,,,
,,,,,,,stim2/pa-15.wav,5e9133f704391d46ee2bcb31,2021-01-20_15h37.13.137,Spanish_step2,2020.2.3,Win32,60,,,,,,,,,,,,,,,,,right,0.79148,,,,,,z,1.51831,0,0,0,12,1,,
,,,,,,,stim2/pa+45.wav,5e9133f704391d46ee2bcb31,2021-01-20_15h37.13.137,Spanish_step2,2020.2.3,Win32,60,,,,,,,,,,,,,,,,,left,0.51804,,,,,,,,0,1,1,8,1,,
,,,,,,,stim2/pa-35.wav,5e9133f704391d46ee2bcb31,2021-01-20_15h37.13.137,Spanish_step2,2020.2.3,Win32,60,,,,,,,,,,,,,,,,,right,0.634605,,,,,,,,0,2,2,16,1,,
,,,,,,,stim2/pa+30.wav,5e9133f704391d46ee2bcb31,2021-01-20_15h37.13.137,Spanish_step2,2020.2.3,Win32,60,,,,,,,,,,,,,,,,,left,0.75442,,,,,,,,0,3,3,5,1,,
,,,,,,,stim2/pa+10.wav,5e9133f704391d46ee2bcb31,2021-01-20_15h37.13.137,Spanish_step2,2020.2.3,Win32,60,,,,,,,,,,,,,,,,,left,1.12595,,,,,,,,0,4,4,1,1,,
,,,,,,,stim2/pa-20.wav,5e9133f704391d46ee2bcb31,2021-01-20_15h37.13.137,Spanish_step2,2020.2.3,Win32,60,,,,,,,,,,,,,,,,,right,0.535365,,,,,,,,0,5,5,13,1,,
,,,,,,,stim2/pa+05.wav,5e9133f704391d46ee2bcb31,2021-01-20_15h37.13.137,Spanish_step2,2020.2.3,Win32,60,,,,,,,,,,,,,,,,,left,0.50145,,,,,,,,0,6,6,0,1,,
,,,,,,,stim2/pa+20.wav,5e9133f704391d46ee2bcb31,2021-01-20_15h37.13.137,Spanish_step2,2020.2.3,Win32,60,,,,,,,,,,,,,,,,,left,1.20271,,,,,,,,0,7,7,3,1,,
,,,,,,,stim2/pa+35.wav,5e9133f704391d46ee2bcb31,2021-01-20_15h37.13.137,Spanish_step2,2020.2.3,Win32,60,,,,,,,,,,,,,,,,,left,0.892235,,,,,,,,0,8,8,6,1,,
,,,,,,,stim2/pa+15.wav,5e9133f704391d46ee2bcb31,2021-01-20_15h37.13.137,Spanish_step2,2020.2.3,Win32,60,,,,,,,,,,,,,,,,,left,0.671395,,,,,,,,0,9,9,2,1,,
,,,,,,,stim2/pa-30.wav,5e9133f704391d46ee2bcb31,2021-01-20_15h37.13.137,Spanish_step2,2020.2.3,Win32,60,,,,,,,,,,,,,,,,,right,0.443015,,,,,,,,0,10,10,15,1,,
,,,,,,,stim2/pa-25.wav,5e9133f704391d46ee2bcb31,2021-01-20_15h37.13.137,Spanish_step2,2020.2.3,Win32,60,,,,,,,,,,,,,,,,,right,0.684065,,,,,,,,0,11,11,14,1,,
,,,,,,,stim2/pa-10.wav,5e9133f704391d46ee2bcb31,2021-01-20_15h37.13.137,Spanish_step2,2020.2.3,Win32,60,,,,,,,,,,,,,,,,,right,0.6282,,,,,,,,0,12,12,11,1,,
,,,,,,,stim2/pa+40.wav,5e9133f704391d46ee2bcb31,2021-01-20_15h37.13.137,Spanish_step2,2020.2.3,Win32,60,,,,,,,,,,,,,,,,,left,0.736335,,,,,,,,0,13,13,7,1,,
,,,,,,,stim2/pa+25.wav,5e9133f704391d46ee2bcb31,2021-01-20_15h37.13.137,Spanish_step2,2020.2.3,Win32,60,,,,,,,,,,,,,,,,,left,1.509445,,,,,,,,0,14,14,4,1,,
,,,,,,,stim2/pa-05.wav,5e9133f704391d46ee2bcb31,2021-01-20_15h37.13.137,Spanish_step2,2020.2.3,Win32,60,,,,,,,,,,,,,,,,,right,0.826205,,,,,,,,0,15,15,10,1,,
,,,,,,,stim2/pa+50.wav,5e9133f704391d46ee2bcb31,2021-01-20_15h37.13.137,Spanish_step2,2020.2.3,Win32,60,,,,,,,,,,,,,,,,,left,0.734765,,,,,,,,0,16,16,9,1,,
,,,,,,,stim2/pa+05.wav,5e9133f704391d46ee2bcb31,2021-01-20_15h37.13.137,Spanish_step2,2020.2.3,Win32,60,,,,,,,,,,,,,,,,,left,0.93398,,,,,,,,1,0,17,0,1,,
,,,,,,,stim2/pa-35.wav,5e9133f704391d46ee2bcb31,2021-01-20_15h37.13.137,Spanish_step2,2020.2.3,Win32,60,,,,,,,,,,,,,,,,,right,0.91736,,,,,,,,1,1,18,16,1,,
,,,,,,,stim2/pa+20.wav,5e9133f704391d46ee2bcb31,2021-01-20_15h37.13.137,Spanish_step2,2020.2.3,Win32,60,,,,,,,,,,,,,,,,,left,6.81962,,,,,,,,1,2,19,3,1,,
,,,,,,,stim2/pa-30.wav,5e9133f704391d46ee2bcb31,2021-01-20_15h37.13.137,Spanish_step2,2020.2.3,Win32,60,,,,,,,,,,,,,,,,,right,5.228765,,,,,,,,1,3,20,15,1,,
,,,,,,,stim2/pa+10.wav,5e9133f704391d46ee2bcb31,2021-01-20_15h37.13.137,Spanish_step2,2020.2.3,Win32,60,,,,,,,,,,,,,,,,,left,0.770755,,,,,,,,1,4,21,1,1,,
,,,,,,,stim2/pa+15.wav,5e9133f704391d46ee2bcb31,2021-01-20_15h37.13.137,Spanish_step2,2020.2.3,Win32,60,,,,,,,,,,,,,,,,,left,1.002975,,,,,,,,1,5,22,2,1,,
,,,,,,,stim2/pa-20.wav,5e9133f704391d46ee2bcb31,2021-01-20_15h37.13.137,Spanish_step2,2020.2.3,Win32,60,,,,,,,,,,,,,,,,,right,0.65083,,,,,,,,1,6,23,13,1,,
,,,,,,,stim2/pa+30.wav,5e9133f704391d46ee2bcb31,2021-01-20_15h37.13.137,Spanish_step2,2020.2.3,Win32,60,,,,,,,,,,,,,,,,,right,1.316135,,,,,,,,1,7,24,5,1,,
,,,,,,,stim2/pa+25.wav,5e9133f704391d46ee2bcb31,2021-01-20_15h37.13.137,Spanish_step2,2020.2.3,Win32,60,,,,,,,,,,,,,,,,,left,0.651435,,,,,,,,1,8,25,4,1,,
,,,,,,,stim2/pa-25.wav,5e9133f704391d46ee2bcb31,2021-01-20_15h37.13.137,Spanish_step2,2020.2.3,Win32,60,,,,,,,,,,,,,,,,,right,0.75135,,,,,,,,1,9,26,14,1,,
,,,,,,,stim2/pa+40.wav,5e9133f704391d46ee2bcb31,2021-01-20_15h37.13.137,Spanish_step2,2020.2.3,Win32,60,,,,,,,,,,,,,,,,,left,0.684665,,,,,,,,1,10,27,7,1,,
,,,,,,,stim2/pa+50.wav,5e9133f704391d46ee2bcb31,2021-01-20_15h37.13.137,Spanish_step2,2020.2.3,Win32,60,,,,,,,,,,,,,,,,,left,1.16561,,,,,,,,1,11,28,9,1,,
,,,,,,,stim2/pa-05.wav,5e9133f704391d46ee2bcb31,2021-01-20_15h37.13.137,Spanish_step2,2020.2.3,Win32,60,,,,,,,,,,,,,,,,,right,0.643905,,,,,,,,1,12,29,10,1,,
,,,,,,,stim2/pa+45.wav,5e9133f704391d46ee2bcb31,2021-01-20_15h37.13.137,Spanish_step2,2020.2.3,Win32,60,,,,,,,,,,,,,,,,,left,0.633985,,,,,,,,1,13,30,8,1,,
,,,,,,,stim2/pa+35.wav,5e9133f704391d46ee2bcb31,2021-01-20_15h37.13.137,Spanish_step2,2020.2.3,Win32,60,,,,,,,,,,,,,,,,,left,0.74438,,,,,,,,1,14,31,6,1,,
,,,,,,,stim2/pa-15.wav,5e9133f704391d46ee2bcb31,2021-01-20_15h37.13.137,Spanish_step2,2020.2.3,Win32,60,,,,,,,,,,,,,,,,,right,0.6589,,,,,,,,1,15,32,12,1,,
,,,,,,,stim2/pa-10.wav,5e9133f704391d46ee2bcb31,2021-01-20_15h37.13.137,Spanish_step2,2020.2.3,Win32,60,,,,,,,,,,,,,,,,,right,0.536375,,,,,,,,1,16,33,11,1,,
,,,,,,,,5e9133f704391d46ee2bcb31,2021-01-20_15h37.13.137,Spanish_step2,2020.2.3,Win32,60,,,,,,,,,,,,,,,,,,,,,,,,,,,,,,,space,5.98763
