resp.keys,resp.rt,trials.thisRepN,trials.thisTrialN,trials.thisN,trials.thisIndex,trials.ran,stimuli,participant,date,expName,psychopyVersion,OS,frameRate,gotResponse.keys,gotResponse.rt,resp_2.keys,resp_2.rt,trials_2.thisRepN,trials_2.thisTrialN,trials_2.thisN,trials_2.thisIndex,trials_2.ran,key_resp_3.keys,key_resp_3.rt,trials_4.thisRepN,trials_4.thisTrialN,trials_4.thisN,trials_4.thisIndex,trials_4.ran,resp_3.keys,resp_3.rt,trials_3.thisRepN,trials_3.thisTrialN,trials_3.thisN,trials_3.thisIndex,trials_3.ran,key_resp_2.keys,key_resp_2.rt,trials_5.thisRepN,trials_5.thisTrialN,trials_5.thisN,trials_5.thisIndex,trials_5.ran,key_resp.keys,key_resp.rt
right,0.953495,0,0,0,1,1,stim/VC_11.wav,5ec5a55832a7515e8324a8a8,2021-02-24_15h52.08.677,Spanish_step2,2020.2.3,Win32,60,,,,,,,,,,,,,,,,,,,,,,,,,,,,,,,,
left,0.44349,0,1,1,0,1,stim/VC_01.wav,5ec5a55832a7515e8324a8a8,2021-02-24_15h52.08.677,Spanish_step2,2020.2.3,Win32,60,,,,,,,,,,,,,,,,,,,,,,,,,,,,,,,,
,,,,,,,stim/VC_11.wav,5ec5a55832a7515e8324a8a8,2021-02-24_15h52.08.677,Spanish_step2,2020.2.3,Win32,60,space,1.1633,right,0.660515,0,0,0,10,1,,,,,,,,,,,,,,,,,,,,,,,
,,,,,,,stim/VC_03.wav,5ec5a55832a7515e8324a8a8,2021-02-24_15h52.08.677,Spanish_step2,2020.2.3,Win32,60,,,left,0.410015,0,1,1,2,1,,,,,,,,,,,,,,,,,,,,,,,
,,,,,,,stim/VC_04.wav,5ec5a55832a7515e8324a8a8,2021-02-24_15h52.08.677,Spanish_step2,2020.2.3,Win32,60,,,left,0.52456,0,2,2,3,1,,,,,,,,,,,,,,,,,,,,,,,
,,,,,,,stim/VC_01.wav,5ec5a55832a7515e8324a8a8,2021-02-24_15h52.08.677,Spanish_step2,2020.2.3,Win32,60,,,left,0.44331,0,3,3,0,1,,,,,,,,,,,,,,,,,,,,,,,
,,,,,,,stim/VC_06.wav,5ec5a55832a7515e8324a8a8,2021-02-24_15h52.08.677,Spanish_step2,2020.2.3,Win32,60,,,right,0.444675,0,4,4,5,1,,,,,,,,,,,,,,,,,,,,,,,
,,,,,,,stim/VC_02.wav,5ec5a55832a7515e8324a8a8,2021-02-24_15h52.08.677,Spanish_step2,2020.2.3,Win32,60,,,left,0.44461,0,5,5,1,1,,,,,,,,,,,,,,,,,,,,,,,
,,,,,,,stim/VC_10.wav,5ec5a55832a7515e8324a8a8,2021-02-24_15h52.08.677,Spanish_step2,2020.2.3,Win32,60,,,right,0.361045,0,6,6,9,1,,,,,,,,,,,,,,,,,,,,,,,
,,,,,,,stim/VC_09.wav,5ec5a55832a7515e8324a8a8,2021-02-24_15h52.08.677,Spanish_step2,2020.2.3,Win32,60,,,right,0.517145,0,7,7,8,1,,,,,,,,,,,,,,,,,,,,,,,
,,,,,,,stim/VC_08.wav,5ec5a55832a7515e8324a8a8,2021-02-24_15h52.08.677,Spanish_step2,2020.2.3,Win32,60,,,right,0.42707,0,8,8,7,1,,,,,,,,,,,,,,,,,,,,,,,
,,,,,,,stim/VC_07.wav,5ec5a55832a7515e8324a8a8,2021-02-24_15h52.08.677,Spanish_step2,2020.2.3,Win32,60,,,right,0.477085,0,9,9,6,1,,,,,,,,,,,,,,,,,,,,,,,
,,,,,,,stim/VC_05.wav,5ec5a55832a7515e8324a8a8,2021-02-24_15h52.08.677,Spanish_step2,2020.2.3,Win32,60,,,right,0.429045,0,10,10,4,1,,,,,,,,,,,,,,,,,,,,,,,
,,,,,,,stim/VC_05.wav,5ec5a55832a7515e8324a8a8,2021-02-24_15h52.08.677,Spanish_step2,2020.2.3,Win32,60,,,right,0.442785,1,0,11,4,1,,,,,,,,,,,,,,,,,,,,,,,
,,,,,,,stim/VC_02.wav,5ec5a55832a7515e8324a8a8,2021-02-24_15h52.08.677,Spanish_step2,2020.2.3,Win32,60,,,left,0.493315,1,1,12,1,1,,,,,,,,,,,,,,,,,,,,,,,
,,,,,,,stim/VC_03.wav,5ec5a55832a7515e8324a8a8,2021-02-24_15h52.08.677,Spanish_step2,2020.2.3,Win32,60,,,left,0.42855,1,2,13,2,1,,,,,,,,,,,,,,,,,,,,,,,
,,,,,,,stim/VC_11.wav,5ec5a55832a7515e8324a8a8,2021-02-24_15h52.08.677,Spanish_step2,2020.2.3,Win32,60,,,right,0.448285,1,3,14,10,1,,,,,,,,,,,,,,,,,,,,,,,
,,,,,,,stim/VC_10.wav,5ec5a55832a7515e8324a8a8,2021-02-24_15h52.08.677,Spanish_step2,2020.2.3,Win32,60,,,right,0.42463,1,4,15,9,1,,,,,,,,,,,,,,,,,,,,,,,
,,,,,,,stim/VC_01.wav,5ec5a55832a7515e8324a8a8,2021-02-24_15h52.08.677,Spanish_step2,2020.2.3,Win32,60,,,left,0.411375,1,5,16,0,1,,,,,,,,,,,,,,,,,,,,,,,
,,,,,,,stim/VC_04.wav,5ec5a55832a7515e8324a8a8,2021-02-24_15h52.08.677,Spanish_step2,2020.2.3,Win32,60,,,left,0.56403,1,6,17,3,1,,,,,,,,,,,,,,,,,,,,,,,
,,,,,,,stim/VC_07.wav,5ec5a55832a7515e8324a8a8,2021-02-24_15h52.08.677,Spanish_step2,2020.2.3,Win32,60,,,right,0.56059,1,7,18,6,1,,,,,,,,,,,,,,,,,,,,,,,
,,,,,,,stim/VC_06.wav,5ec5a55832a7515e8324a8a8,2021-02-24_15h52.08.677,Spanish_step2,2020.2.3,Win32,60,,,right,0.678865,1,8,19,5,1,,,,,,,,,,,,,,,,,,,,,,,
,,,,,,,stim/VC_08.wav,5ec5a55832a7515e8324a8a8,2021-02-24_15h52.08.677,Spanish_step2,2020.2.3,Win32,60,,,right,0.63999,1,9,20,7,1,,,,,,,,,,,,,,,,,,,,,,,
,,,,,,,stim/VC_09.wav,5ec5a55832a7515e8324a8a8,2021-02-24_15h52.08.677,Spanish_step2,2020.2.3,Win32,60,,,right,0.49063,1,10,21,8,1,,,,,,,,,,,,,,,,,,,,,,,
,,,,,,,stim/VC_11.wav,5ec5a55832a7515e8324a8a8,2021-02-24_15h52.08.677,Spanish_step2,2020.2.3,Win32,60,,,right,0.724295,2,0,22,10,1,,,,,,,,,,,,,,,,,,,,,,,
,,,,,,,stim/VC_02.wav,5ec5a55832a7515e8324a8a8,2021-02-24_15h52.08.677,Spanish_step2,2020.2.3,Win32,60,,,left,0.433425,2,1,23,1,1,,,,,,,,,,,,,,,,,,,,,,,
,,,,,,,stim/VC_09.wav,5ec5a55832a7515e8324a8a8,2021-02-24_15h52.08.677,Spanish_step2,2020.2.3,Win32,60,,,right,0.458535,2,2,24,8,1,,,,,,,,,,,,,,,,,,,,,,,
,,,,,,,stim/VC_05.wav,5ec5a55832a7515e8324a8a8,2021-02-24_15h52.08.677,Spanish_step2,2020.2.3,Win32,60,,,left,0.75764,2,3,25,4,1,,,,,,,,,,,,,,,,,,,,,,,
,,,,,,,stim/VC_01.wav,5ec5a55832a7515e8324a8a8,2021-02-24_15h52.08.677,Spanish_step2,2020.2.3,Win32,60,,,left,0.40825,2,4,26,0,1,,,,,,,,,,,,,,,,,,,,,,,
,,,,,,,stim/VC_06.wav,5ec5a55832a7515e8324a8a8,2021-02-24_15h52.08.677,Spanish_step2,2020.2.3,Win32,60,,,right,0.544435,2,5,27,5,1,,,,,,,,,,,,,,,,,,,,,,,
,,,,,,,stim/VC_07.wav,5ec5a55832a7515e8324a8a8,2021-02-24_15h52.08.677,Spanish_step2,2020.2.3,Win32,60,,,right,0.512615,2,6,28,6,1,,,,,,,,,,,,,,,,,,,,,,,
,,,,,,,stim/VC_08.wav,5ec5a55832a7515e8324a8a8,2021-02-24_15h52.08.677,Spanish_step2,2020.2.3,Win32,60,,,right,0.510505,2,7,29,7,1,,,,,,,,,,,,,,,,,,,,,,,
,,,,,,,stim/VC_04.wav,5ec5a55832a7515e8324a8a8,2021-02-24_15h52.08.677,Spanish_step2,2020.2.3,Win32,60,,,left,0.64227,2,8,30,3,1,,,,,,,,,,,,,,,,,,,,,,,
,,,,,,,stim/VC_03.wav,5ec5a55832a7515e8324a8a8,2021-02-24_15h52.08.677,Spanish_step2,2020.2.3,Win32,60,,,left,0.41366,2,9,31,2,1,,,,,,,,,,,,,,,,,,,,,,,
,,,,,,,stim/VC_10.wav,5ec5a55832a7515e8324a8a8,2021-02-24_15h52.08.677,Spanish_step2,2020.2.3,Win32,60,,,right,0.578215,2,10,32,9,1,,,,,,,,,,,,,,,,,,,,,,,
,,,,,,,stim/VC_10.wav,5ec5a55832a7515e8324a8a8,2021-02-24_15h52.08.677,Spanish_step2,2020.2.3,Win32,60,,,right,0.674965,,,,,,7,4.0522,0,0,0,9,1,,,,,,,,,,,,,,,,
,,,,,,,stim/VC_08.wav,5ec5a55832a7515e8324a8a8,2021-02-24_15h52.08.677,Spanish_step2,2020.2.3,Win32,60,,,right,0.508815,,,,,,,,0,1,1,7,1,,,,,,,,,,,,,,,,
,,,,,,,stim/VC_04.wav,5ec5a55832a7515e8324a8a8,2021-02-24_15h52.08.677,Spanish_step2,2020.2.3,Win32,60,,,left,0.510295,,,,,,,,0,2,2,3,1,,,,,,,,,,,,,,,,
,,,,,,,stim/VC_06.wav,5ec5a55832a7515e8324a8a8,2021-02-24_15h52.08.677,Spanish_step2,2020.2.3,Win32,60,,,left,0.776935,,,,,,,,0,3,3,5,1,,,,,,,,,,,,,,,,
,,,,,,,stim/VC_09.wav,5ec5a55832a7515e8324a8a8,2021-02-24_15h52.08.677,Spanish_step2,2020.2.3,Win32,60,,,right,0.45791,,,,,,,,0,4,4,8,1,,,,,,,,,,,,,,,,
,,,,,,,stim/VC_05.wav,5ec5a55832a7515e8324a8a8,2021-02-24_15h52.08.677,Spanish_step2,2020.2.3,Win32,60,,,left,0.607425,,,,,,,,0,5,5,4,1,,,,,,,,,,,,,,,,
,,,,,,,stim/VC_03.wav,5ec5a55832a7515e8324a8a8,2021-02-24_15h52.08.677,Spanish_step2,2020.2.3,Win32,60,,,left,0.37637,,,,,,,,0,6,6,2,1,,,,,,,,,,,,,,,,
,,,,,,,stim/VC_02.wav,5ec5a55832a7515e8324a8a8,2021-02-24_15h52.08.677,Spanish_step2,2020.2.3,Win32,60,,,left,0.396975,,,,,,,,0,7,7,1,1,,,,,,,,,,,,,,,,
,,,,,,,stim/VC_07.wav,5ec5a55832a7515e8324a8a8,2021-02-24_15h52.08.677,Spanish_step2,2020.2.3,Win32,60,,,right,0.524855,,,,,,,,0,8,8,6,1,,,,,,,,,,,,,,,,
,,,,,,,stim/VC_11.wav,5ec5a55832a7515e8324a8a8,2021-02-24_15h52.08.677,Spanish_step2,2020.2.3,Win32,60,,,right,0.46272,,,,,,,,0,9,9,10,1,,,,,,,,,,,,,,,,
,,,,,,,stim/VC_01.wav,5ec5a55832a7515e8324a8a8,2021-02-24_15h52.08.677,Spanish_step2,2020.2.3,Win32,60,,,left,0.3755,,,,,,,,0,10,10,0,1,,,,,,,,,,,,,,,,
,,,,,,,stim/VC_09.wav,5ec5a55832a7515e8324a8a8,2021-02-24_15h52.08.677,Spanish_step2,2020.2.3,Win32,60,,,right,0.463115,,,,,,,,1,0,11,8,1,,,,,,,,,,,,,,,,
,,,,,,,stim/VC_11.wav,5ec5a55832a7515e8324a8a8,2021-02-24_15h52.08.677,Spanish_step2,2020.2.3,Win32,60,,,right,0.461925,,,,,,,,1,1,12,10,1,,,,,,,,,,,,,,,,
,,,,,,,stim/VC_02.wav,5ec5a55832a7515e8324a8a8,2021-02-24_15h52.08.677,Spanish_step2,2020.2.3,Win32,60,,,left,0.43963,,,,,,,,1,2,13,1,1,,,,,,,,,,,,,,,,
,,,,,,,stim/VC_06.wav,5ec5a55832a7515e8324a8a8,2021-02-24_15h52.08.677,Spanish_step2,2020.2.3,Win32,60,,,right,0.443165,,,,,,,,1,3,14,5,1,,,,,,,,,,,,,,,,
,,,,,,,stim/VC_10.wav,5ec5a55832a7515e8324a8a8,2021-02-24_15h52.08.677,Spanish_step2,2020.2.3,Win32,60,,,right,0.691715,,,,,,,,1,4,15,9,1,,,,,,,,,,,,,,,,
,,,,,,,stim/VC_03.wav,5ec5a55832a7515e8324a8a8,2021-02-24_15h52.08.677,Spanish_step2,2020.2.3,Win32,60,,,left,0.427185,,,,,,,,1,5,16,2,1,,,,,,,,,,,,,,,,
,,,,,,,stim/VC_07.wav,5ec5a55832a7515e8324a8a8,2021-02-24_15h52.08.677,Spanish_step2,2020.2.3,Win32,60,,,right,0.36217,,,,,,,,1,6,17,6,1,,,,,,,,,,,,,,,,
,,,,,,,stim/VC_04.wav,5ec5a55832a7515e8324a8a8,2021-02-24_15h52.08.677,Spanish_step2,2020.2.3,Win32,60,,,left,0.375,,,,,,,,1,7,18,3,1,,,,,,,,,,,,,,,,
,,,,,,,stim/VC_08.wav,5ec5a55832a7515e8324a8a8,2021-02-24_15h52.08.677,Spanish_step2,2020.2.3,Win32,60,,,right,0.36062,,,,,,,,1,8,19,7,1,,,,,,,,,,,,,,,,
,,,,,,,stim/VC_05.wav,5ec5a55832a7515e8324a8a8,2021-02-24_15h52.08.677,Spanish_step2,2020.2.3,Win32,60,,,left,0.57508,,,,,,,,1,9,20,4,1,,,,,,,,,,,,,,,,
,,,,,,,stim/VC_01.wav,5ec5a55832a7515e8324a8a8,2021-02-24_15h52.08.677,Spanish_step2,2020.2.3,Win32,60,,,left,0.467205,,,,,,,,1,10,21,0,1,,,,,,,,,,,,,,,,
,,,,,,,stim2/pa+20.wav,5ec5a55832a7515e8324a8a8,2021-02-24_15h52.08.677,Spanish_step2,2020.2.3,Win32,60,,,,,,,,,,,,,,,,,left,0.969395,0,0,0,3,1,,,,,,,,,
,,,,,,,stim2/pa+50.wav,5ec5a55832a7515e8324a8a8,2021-02-24_15h52.08.677,Spanish_step2,2020.2.3,Win32,60,,,,,,,,,,,,,,,,,right,0.432655,0,1,1,9,1,,,,,,,,,
,,,,,,,stim2/pa+25.wav,5ec5a55832a7515e8324a8a8,2021-02-24_15h52.08.677,Spanish_step2,2020.2.3,Win32,60,,,,,,,,,,,,,,,,,left,0.495515,0,2,2,4,1,,,,,,,,,
,,,,,,,stim2/pa-15.wav,5ec5a55832a7515e8324a8a8,2021-02-24_15h52.08.677,Spanish_step2,2020.2.3,Win32,60,,,,,,,,,,,,,,,,,left,0.54251,0,3,3,12,1,,,,,,,,,
,,,,,,,stim2/pa+35.wav,5ec5a55832a7515e8324a8a8,2021-02-24_15h52.08.677,Spanish_step2,2020.2.3,Win32,60,,,,,,,,,,,,,,,,,left,1.0591,0,4,4,6,1,,,,,,,,,
,,,,,,,stim2/pa-20.wav,5ec5a55832a7515e8324a8a8,2021-02-24_15h52.08.677,Spanish_step2,2020.2.3,Win32,60,,,,,,,,,,,,,,,,,right,0.425765,0,5,5,13,1,,,,,,,,,
,,,,,,,stim2/pa+45.wav,5ec5a55832a7515e8324a8a8,2021-02-24_15h52.08.677,Spanish_step2,2020.2.3,Win32,60,,,,,,,,,,,,,,,,,left,0.67524,0,6,6,8,1,,,,,,,,,
,,,,,,,stim2/pa-35.wav,5ec5a55832a7515e8324a8a8,2021-02-24_15h52.08.677,Spanish_step2,2020.2.3,Win32,60,,,,,,,,,,,,,,,,,right,0.40913,0,7,7,16,1,,,,,,,,,
,,,,,,,stim2/pa-25.wav,5ec5a55832a7515e8324a8a8,2021-02-24_15h52.08.677,Spanish_step2,2020.2.3,Win32,60,,,,,,,,,,,,,,,,,right,0.52686,0,8,8,14,1,,,,,,,,,
,,,,,,,stim2/pa+30.wav,5ec5a55832a7515e8324a8a8,2021-02-24_15h52.08.677,Spanish_step2,2020.2.3,Win32,60,,,,,,,,,,,,,,,,,left,0.464365,0,9,9,5,1,,,,,,,,,
,,,,,,,stim2/pa+05.wav,5ec5a55832a7515e8324a8a8,2021-02-24_15h52.08.677,Spanish_step2,2020.2.3,Win32,60,,,,,,,,,,,,,,,,,left,0.374215,0,10,10,0,1,,,,,,,,,
,,,,,,,stim2/pa+40.wav,5ec5a55832a7515e8324a8a8,2021-02-24_15h52.08.677,Spanish_step2,2020.2.3,Win32,60,,,,,,,,,,,,,,,,,left,0.52837,0,11,11,7,1,,,,,,,,,
,,,,,,,stim2/pa+10.wav,5ec5a55832a7515e8324a8a8,2021-02-24_15h52.08.677,Spanish_step2,2020.2.3,Win32,60,,,,,,,,,,,,,,,,,right,0.326305,0,12,12,1,1,,,,,,,,,
,,,,,,,stim2/pa+15.wav,5ec5a55832a7515e8324a8a8,2021-02-24_15h52.08.677,Spanish_step2,2020.2.3,Win32,60,,,,,,,,,,,,,,,,,left,0.596575,0,13,13,2,1,,,,,,,,,
,,,,,,,stim2/pa-05.wav,5ec5a55832a7515e8324a8a8,2021-02-24_15h52.08.677,Spanish_step2,2020.2.3,Win32,60,,,,,,,,,,,,,,,,,right,0.29786,0,14,14,10,1,,,,,,,,,
,,,,,,,stim2/pa-10.wav,5ec5a55832a7515e8324a8a8,2021-02-24_15h52.08.677,Spanish_step2,2020.2.3,Win32,60,,,,,,,,,,,,,,,,,right,0.39907,0,15,15,11,1,,,,,,,,,
,,,,,,,stim2/pa-30.wav,5ec5a55832a7515e8324a8a8,2021-02-24_15h52.08.677,Spanish_step2,2020.2.3,Win32,60,,,,,,,,,,,,,,,,,right,0.478915,0,16,16,15,1,,,,,,,,,
,,,,,,,stim2/pa-05.wav,5ec5a55832a7515e8324a8a8,2021-02-24_15h52.08.677,Spanish_step2,2020.2.3,Win32,60,,,,,,,,,,,,,,,,,left,0.340635,1,0,17,10,1,,,,,,,,,
,,,,,,,stim2/pa+10.wav,5ec5a55832a7515e8324a8a8,2021-02-24_15h52.08.677,Spanish_step2,2020.2.3,Win32,60,,,,,,,,,,,,,,,,,left,0.662555,1,1,18,1,1,,,,,,,,,
,,,,,,,stim2/pa-15.wav,5ec5a55832a7515e8324a8a8,2021-02-24_15h52.08.677,Spanish_step2,2020.2.3,Win32,60,,,,,,,,,,,,,,,,,right,0.2924,1,2,19,12,1,,,,,,,,,
,,,,,,,stim2/pa-30.wav,5ec5a55832a7515e8324a8a8,2021-02-24_15h52.08.677,Spanish_step2,2020.2.3,Win32,60,,,,,,,,,,,,,,,,,right,0.482005,1,3,20,15,1,,,,,,,,,
,,,,,,,stim2/pa-10.wav,5ec5a55832a7515e8324a8a8,2021-02-24_15h52.08.677,Spanish_step2,2020.2.3,Win32,60,,,,,,,,,,,,,,,,,right,0.391745,1,4,21,11,1,,,,,,,,,
,,,,,,,stim2/pa+30.wav,5ec5a55832a7515e8324a8a8,2021-02-24_15h52.08.677,Spanish_step2,2020.2.3,Win32,60,,,,,,,,,,,,,,,,,right,0.34356,1,5,22,5,1,,,,,,,,,
,,,,,,,stim2/pa+25.wav,5ec5a55832a7515e8324a8a8,2021-02-24_15h52.08.677,Spanish_step2,2020.2.3,Win32,60,,,,,,,,,,,,,,,,,right,0.31381,1,6,23,4,1,,,,,,,,,
,,,,,,,stim2/pa-20.wav,5ec5a55832a7515e8324a8a8,2021-02-24_15h52.08.677,Spanish_step2,2020.2.3,Win32,60,,,,,,,,,,,,,,,,,right,0.330225,1,7,24,13,1,,,,,,,,,
,,,,,,,stim2/pa+40.wav,5ec5a55832a7515e8324a8a8,2021-02-24_15h52.08.677,Spanish_step2,2020.2.3,Win32,60,,,,,,,,,,,,,,,,,right,0.293305,1,8,25,7,1,,,,,,,,,
,,,,,,,stim2/pa+50.wav,5ec5a55832a7515e8324a8a8,2021-02-24_15h52.08.677,Spanish_step2,2020.2.3,Win32,60,,,,,,,,,,,,,,,,,right,0.310475,1,9,26,9,1,,,,,,,,,
,,,,,,,stim2/pa+35.wav,5ec5a55832a7515e8324a8a8,2021-02-24_15h52.08.677,Spanish_step2,2020.2.3,Win32,60,,,,,,,,,,,,,,,,,right,0.380435,1,10,27,6,1,,,,,,,,,
,,,,,,,stim2/pa-25.wav,5ec5a55832a7515e8324a8a8,2021-02-24_15h52.08.677,Spanish_step2,2020.2.3,Win32,60,,,,,,,,,,,,,,,,,right,0.54345,1,11,28,14,1,,,,,,,,,
,,,,,,,stim2/pa-35.wav,5ec5a55832a7515e8324a8a8,2021-02-24_15h52.08.677,Spanish_step2,2020.2.3,Win32,60,,,,,,,,,,,,,,,,,right,0.468075,1,12,29,16,1,,,,,,,,,
,,,,,,,stim2/pa+15.wav,5ec5a55832a7515e8324a8a8,2021-02-24_15h52.08.677,Spanish_step2,2020.2.3,Win32,60,,,,,,,,,,,,,,,,,left,0.39034,1,13,30,2,1,,,,,,,,,
,,,,,,,stim2/pa+45.wav,5ec5a55832a7515e8324a8a8,2021-02-24_15h52.08.677,Spanish_step2,2020.2.3,Win32,60,,,,,,,,,,,,,,,,,left,0.508555,1,14,31,8,1,,,,,,,,,
,,,,,,,stim2/pa+05.wav,5ec5a55832a7515e8324a8a8,2021-02-24_15h52.08.677,Spanish_step2,2020.2.3,Win32,60,,,,,,,,,,,,,,,,,left,0.56039,1,15,32,0,1,,,,,,,,,
,,,,,,,stim2/pa+20.wav,5ec5a55832a7515e8324a8a8,2021-02-24_15h52.08.677,Spanish_step2,2020.2.3,Win32,60,,,,,,,,,,,,,,,,,left,0.326125,1,16,33,3,1,,,,,,,,,
,,,,,,,stim2/pa-25.wav,5ec5a55832a7515e8324a8a8,2021-02-24_15h52.08.677,Spanish_step2,2020.2.3,Win32,60,,,,,,,,,,,,,,,,,right,0.580955,2,0,34,14,1,,,,,,,,,
,,,,,,,stim2/pa-15.wav,5ec5a55832a7515e8324a8a8,2021-02-24_15h52.08.677,Spanish_step2,2020.2.3,Win32,60,,,,,,,,,,,,,,,,,right,0.414045,2,1,35,12,1,,,,,,,,,
,,,,,,,stim2/pa-30.wav,5ec5a55832a7515e8324a8a8,2021-02-24_15h52.08.677,Spanish_step2,2020.2.3,Win32,60,,,,,,,,,,,,,,,,,right,0.748285,2,2,36,15,1,,,,,,,,,
,,,,,,,stim2/pa+05.wav,5ec5a55832a7515e8324a8a8,2021-02-24_15h52.08.677,Spanish_step2,2020.2.3,Win32,60,,,,,,,,,,,,,,,,,left,0.509385,2,3,37,0,1,,,,,,,,,
,,,,,,,stim2/pa+30.wav,5ec5a55832a7515e8324a8a8,2021-02-24_15h52.08.677,Spanish_step2,2020.2.3,Win32,60,,,,,,,,,,,,,,,,,right,0.39277,2,4,38,5,1,,,,,,,,,
,,,,,,,stim2/pa+10.wav,5ec5a55832a7515e8324a8a8,2021-02-24_15h52.08.677,Spanish_step2,2020.2.3,Win32,60,,,,,,,,,,,,,,,,,left,0.579015,2,5,39,1,1,,,,,,,,,
,,,,,,,stim2/pa+20.wav,5ec5a55832a7515e8324a8a8,2021-02-24_15h52.08.677,Spanish_step2,2020.2.3,Win32,60,,,,,,,,,,,,,,,,,left,0.3764,2,6,40,3,1,,,,,,,,,
,,,,,,,stim2/pa+35.wav,5ec5a55832a7515e8324a8a8,2021-02-24_15h52.08.677,Spanish_step2,2020.2.3,Win32,60,,,,,,,,,,,,,,,,,left,0.52965,2,7,41,6,1,,,,,,,,,
,,,,,,,stim2/pa-10.wav,5ec5a55832a7515e8324a8a8,2021-02-24_15h52.08.677,Spanish_step2,2020.2.3,Win32,60,,,,,,,,,,,,,,,,,right,0.660275,2,8,42,11,1,,,,,,,,,
,,,,,,,stim2/pa+15.wav,5ec5a55832a7515e8324a8a8,2021-02-24_15h52.08.677,Spanish_step2,2020.2.3,Win32,60,,,,,,,,,,,,,,,,,left,0.475155,2,9,43,2,1,,,,,,,,,
,,,,,,,stim2/pa+25.wav,5ec5a55832a7515e8324a8a8,2021-02-24_15h52.08.677,Spanish_step2,2020.2.3,Win32,60,,,,,,,,,,,,,,,,,left,0.51033,2,10,44,4,1,,,,,,,,,
,,,,,,,stim2/pa-20.wav,5ec5a55832a7515e8324a8a8,2021-02-24_15h52.08.677,Spanish_step2,2020.2.3,Win32,60,,,,,,,,,,,,,,,,,right,0.44483,2,11,45,13,1,,,,,,,,,
,,,,,,,stim2/pa+40.wav,5ec5a55832a7515e8324a8a8,2021-02-24_15h52.08.677,Spanish_step2,2020.2.3,Win32,60,,,,,,,,,,,,,,,,,left,0.39239,2,12,46,7,1,,,,,,,,,
,,,,,,,stim2/pa+45.wav,5ec5a55832a7515e8324a8a8,2021-02-24_15h52.08.677,Spanish_step2,2020.2.3,Win32,60,,,,,,,,,,,,,,,,,left,0.39091,2,13,47,8,1,,,,,,,,,
,,,,,,,stim2/pa+50.wav,5ec5a55832a7515e8324a8a8,2021-02-24_15h52.08.677,Spanish_step2,2020.2.3,Win32,60,,,,,,,,,,,,,,,,,left,0.368325,2,14,48,9,1,,,,,,,,,
,,,,,,,stim2/pa-35.wav,5ec5a55832a7515e8324a8a8,2021-02-24_15h52.08.677,Spanish_step2,2020.2.3,Win32,60,,,,,,,,,,,,,,,,,left,0.408975,2,15,49,16,1,,,,,,,,,
,,,,,,,stim2/pa-05.wav,5ec5a55832a7515e8324a8a8,2021-02-24_15h52.08.677,Spanish_step2,2020.2.3,Win32,60,,,,,,,,,,,,,,,,,right,0.696615,2,16,50,10,1,,,,,,,,,
,,,,,,,stim2/pa-20.wav,5ec5a55832a7515e8324a8a8,2021-02-24_15h52.08.677,Spanish_step2,2020.2.3,Win32,60,,,,,,,,,,,,,,,,,right,0.69117,,,,,,z,2.803785,0,0,0,13,1,,
,,,,,,,stim2/pa-15.wav,5ec5a55832a7515e8324a8a8,2021-02-24_15h52.08.677,Spanish_step2,2020.2.3,Win32,60,,,,,,,,,,,,,,,,,right,0.780765,,,,,,,,0,1,1,12,1,,
,,,,,,,stim2/pa+50.wav,5ec5a55832a7515e8324a8a8,2021-02-24_15h52.08.677,Spanish_step2,2020.2.3,Win32,60,,,,,,,,,,,,,,,,,left,0.460235,,,,,,,,0,2,2,9,1,,
,,,,,,,stim2/pa-05.wav,5ec5a55832a7515e8324a8a8,2021-02-24_15h52.08.677,Spanish_step2,2020.2.3,Win32,60,,,,,,,,,,,,,,,,,right,0.55924,,,,,,,,0,3,3,10,1,,
,,,,,,,stim2/pa-10.wav,5ec5a55832a7515e8324a8a8,2021-02-24_15h52.08.677,Spanish_step2,2020.2.3,Win32,60,,,,,,,,,,,,,,,,,right,1.196375,,,,,,,,0,4,4,11,1,,
,,,,,,,stim2/pa+20.wav,5ec5a55832a7515e8324a8a8,2021-02-24_15h52.08.677,Spanish_step2,2020.2.3,Win32,60,,,,,,,,,,,,,,,,,left,0.60893,,,,,,,,0,5,5,3,1,,
,,,,,,,stim2/pa+30.wav,5ec5a55832a7515e8324a8a8,2021-02-24_15h52.08.677,Spanish_step2,2020.2.3,Win32,60,,,,,,,,,,,,,,,,,left,0.96543,,,,,,,,0,6,6,5,1,,
,,,,,,,stim2/pa-30.wav,5ec5a55832a7515e8324a8a8,2021-02-24_15h52.08.677,Spanish_step2,2020.2.3,Win32,60,,,,,,,,,,,,,,,,,right,0.5091,,,,,,,,0,7,7,15,1,,
,,,,,,,stim2/pa-35.wav,5ec5a55832a7515e8324a8a8,2021-02-24_15h52.08.677,Spanish_step2,2020.2.3,Win32,60,,,,,,,,,,,,,,,,,right,0.51354,,,,,,,,0,8,8,16,1,,
,,,,,,,stim2/pa+05.wav,5ec5a55832a7515e8324a8a8,2021-02-24_15h52.08.677,Spanish_step2,2020.2.3,Win32,60,,,,,,,,,,,,,,,,,left,0.40798,,,,,,,,0,9,9,0,1,,
,,,,,,,stim2/pa+10.wav,5ec5a55832a7515e8324a8a8,2021-02-24_15h52.08.677,Spanish_step2,2020.2.3,Win32,60,,,,,,,,,,,,,,,,,left,0.506855,,,,,,,,0,10,10,1,1,,
,,,,,,,stim2/pa-25.wav,5ec5a55832a7515e8324a8a8,2021-02-24_15h52.08.677,Spanish_step2,2020.2.3,Win32,60,,,,,,,,,,,,,,,,,right,0.459375,,,,,,,,0,11,11,14,1,,
,,,,,,,stim2/pa+15.wav,5ec5a55832a7515e8324a8a8,2021-02-24_15h52.08.677,Spanish_step2,2020.2.3,Win32,60,,,,,,,,,,,,,,,,,left,0.343395,,,,,,,,0,12,12,2,1,,
,,,,,,,stim2/pa+40.wav,5ec5a55832a7515e8324a8a8,2021-02-24_15h52.08.677,Spanish_step2,2020.2.3,Win32,60,,,,,,,,,,,,,,,,,right,0.359035,,,,,,,,0,13,13,7,1,,
,,,,,,,stim2/pa+35.wav,5ec5a55832a7515e8324a8a8,2021-02-24_15h52.08.677,Spanish_step2,2020.2.3,Win32,60,,,,,,,,,,,,,,,,,left,0.37624,,,,,,,,0,14,14,6,1,,
,,,,,,,stim2/pa+25.wav,5ec5a55832a7515e8324a8a8,2021-02-24_15h52.08.677,Spanish_step2,2020.2.3,Win32,60,,,,,,,,,,,,,,,,,right,0.3445,,,,,,,,0,15,15,4,1,,
,,,,,,,stim2/pa+45.wav,5ec5a55832a7515e8324a8a8,2021-02-24_15h52.08.677,Spanish_step2,2020.2.3,Win32,60,,,,,,,,,,,,,,,,,left,0.35942,,,,,,,,0,16,16,8,1,,
,,,,,,,stim2/pa-05.wav,5ec5a55832a7515e8324a8a8,2021-02-24_15h52.08.677,Spanish_step2,2020.2.3,Win32,60,,,,,,,,,,,,,,,,,right,0.292465,,,,,,,,1,0,17,10,1,,
,,,,,,,stim2/pa+15.wav,5ec5a55832a7515e8324a8a8,2021-02-24_15h52.08.677,Spanish_step2,2020.2.3,Win32,60,,,,,,,,,,,,,,,,,left,0.31534,,,,,,,,1,1,18,2,1,,
,,,,,,,stim2/pa-10.wav,5ec5a55832a7515e8324a8a8,2021-02-24_15h52.08.677,Spanish_step2,2020.2.3,Win32,60,,,,,,,,,,,,,,,,,right,0.247975,,,,,,,,1,2,19,11,1,,
,,,,,,,stim2/pa+25.wav,5ec5a55832a7515e8324a8a8,2021-02-24_15h52.08.677,Spanish_step2,2020.2.3,Win32,60,,,,,,,,,,,,,,,,,left,0.344295,,,,,,,,1,3,20,4,1,,
,,,,,,,stim2/pa-15.wav,5ec5a55832a7515e8324a8a8,2021-02-24_15h52.08.677,Spanish_step2,2020.2.3,Win32,60,,,,,,,,,,,,,,,,,right,0.30726,,,,,,,,1,4,21,12,1,,
,,,,,,,stim2/pa+35.wav,5ec5a55832a7515e8324a8a8,2021-02-24_15h52.08.677,Spanish_step2,2020.2.3,Win32,60,,,,,,,,,,,,,,,,,left,0.32588,,,,,,,,1,5,22,6,1,,
,,,,,,,stim2/pa-20.wav,5ec5a55832a7515e8324a8a8,2021-02-24_15h52.08.677,Spanish_step2,2020.2.3,Win32,60,,,,,,,,,,,,,,,,,right,0.343265,,,,,,,,1,6,23,13,1,,
,,,,,,,stim2/pa-35.wav,5ec5a55832a7515e8324a8a8,2021-02-24_15h52.08.677,Spanish_step2,2020.2.3,Win32,60,,,,,,,,,,,,,,,,,left,0.32789,,,,,,,,1,7,24,16,1,,
,,,,,,,stim2/pa+20.wav,5ec5a55832a7515e8324a8a8,2021-02-24_15h52.08.677,Spanish_step2,2020.2.3,Win32,60,,,,,,,,,,,,,,,,,right,0.26559,,,,,,,,1,8,25,3,1,,
,,,,,,,stim2/pa+45.wav,5ec5a55832a7515e8324a8a8,2021-02-24_15h52.08.677,Spanish_step2,2020.2.3,Win32,60,,,,,,,,,,,,,,,,,left,0.312985,,,,,,,,1,9,26,8,1,,
,,,,,,,stim2/pa+40.wav,5ec5a55832a7515e8324a8a8,2021-02-24_15h52.08.677,Spanish_step2,2020.2.3,Win32,60,,,,,,,,,,,,,,,,,right,0.280825,,,,,,,,1,10,27,7,1,,
,,,,,,,stim2/pa+30.wav,5ec5a55832a7515e8324a8a8,2021-02-24_15h52.08.677,Spanish_step2,2020.2.3,Win32,60,,,,,,,,,,,,,,,,,left,0.62363,,,,,,,,1,11,28,5,1,,
,,,,,,,stim2/pa-25.wav,5ec5a55832a7515e8324a8a8,2021-02-24_15h52.08.677,Spanish_step2,2020.2.3,Win32,60,,,,,,,,,,,,,,,,,right,0.475965,,,,,,,,1,12,29,14,1,,
,,,,,,,stim2/pa+10.wav,5ec5a55832a7515e8324a8a8,2021-02-24_15h52.08.677,Spanish_step2,2020.2.3,Win32,60,,,,,,,,,,,,,,,,,left,0.691915,,,,,,,,1,13,30,1,1,,
,,,,,,,stim2/pa+05.wav,5ec5a55832a7515e8324a8a8,2021-02-24_15h52.08.677,Spanish_step2,2020.2.3,Win32,60,,,,,,,,,,,,,,,,,right,0.42389,,,,,,,,1,14,31,0,1,,
,,,,,,,stim2/pa-30.wav,5ec5a55832a7515e8324a8a8,2021-02-24_15h52.08.677,Spanish_step2,2020.2.3,Win32,60,,,,,,,,,,,,,,,,,right,0.49525,,,,,,,,1,15,32,15,1,,
,,,,,,,stim2/pa+50.wav,5ec5a55832a7515e8324a8a8,2021-02-24_15h52.08.677,Spanish_step2,2020.2.3,Win32,60,,,,,,,,,,,,,,,,,left,0.626005,,,,,,,,1,16,33,9,1,,
,,,,,,,,5ec5a55832a7515e8324a8a8,2021-02-24_15h52.08.677,Spanish_step2,2020.2.3,Win32,60,,,,,,,,,,,,,,,,,,,,,,,,,,,,,,,space,8.241815
