resp.keys,resp.rt,trials.thisRepN,trials.thisTrialN,trials.thisN,trials.thisIndex,trials.ran,stimuli,participant,date,expName,psychopyVersion,OS,frameRate,gotResponse.keys,gotResponse.rt,resp_2.keys,resp_2.rt,trials_2.thisRepN,trials_2.thisTrialN,trials_2.thisN,trials_2.thisIndex,trials_2.ran,key_resp_3.keys,key_resp_3.rt,trials_4.thisRepN,trials_4.thisTrialN,trials_4.thisN,trials_4.thisIndex,trials_4.ran,resp_3.keys,resp_3.rt,trials_3.thisRepN,trials_3.thisTrialN,trials_3.thisN,trials_3.thisIndex,trials_3.ran,key_resp_2.keys,key_resp_2.rt,trials_5.thisRepN,trials_5.thisTrialN,trials_5.thisN,trials_5.thisIndex,trials_5.ran,key_resp.keys,key_resp.rt
right,1.071015,0,0,0,1,1,stim/VC_11.wav,5f19dc86afa07c0894f60578,2021-02-24_15h48.42.577,Spanish_step2,2020.2.3,Linux x86_64,60,,,,,,,,,,,,,,,,,,,,,,,,,,,,,,,,
left,0.603845,0,1,1,0,1,stim/VC_01.wav,5f19dc86afa07c0894f60578,2021-02-24_15h48.42.577,Spanish_step2,2020.2.3,Linux x86_64,60,,,,,,,,,,,,,,,,,,,,,,,,,,,,,,,,
,,,,,,,stim/VC_03.wav,5f19dc86afa07c0894f60578,2021-02-24_15h48.42.577,Spanish_step2,2020.2.3,Linux x86_64,60,space,1.5542,left,0.78683,0,0,0,2,1,,,,,,,,,,,,,,,,,,,,,,,
,,,,,,,stim/VC_05.wav,5f19dc86afa07c0894f60578,2021-02-24_15h48.42.577,Spanish_step2,2020.2.3,Linux x86_64,60,,,left,0.845765,0,1,1,4,1,,,,,,,,,,,,,,,,,,,,,,,
,,,,,,,stim/VC_06.wav,5f19dc86afa07c0894f60578,2021-02-24_15h48.42.577,Spanish_step2,2020.2.3,Linux x86_64,60,,,left,0.604095,0,2,2,5,1,,,,,,,,,,,,,,,,,,,,,,,
,,,,,,,stim/VC_07.wav,5f19dc86afa07c0894f60578,2021-02-24_15h48.42.577,Spanish_step2,2020.2.3,Linux x86_64,60,,,left,0.748445,0,3,3,6,1,,,,,,,,,,,,,,,,,,,,,,,
,,,,,,,stim/VC_02.wav,5f19dc86afa07c0894f60578,2021-02-24_15h48.42.577,Spanish_step2,2020.2.3,Linux x86_64,60,,,left,0.687775,0,4,4,1,1,,,,,,,,,,,,,,,,,,,,,,,
,,,,,,,stim/VC_01.wav,5f19dc86afa07c0894f60578,2021-02-24_15h48.42.577,Spanish_step2,2020.2.3,Linux x86_64,60,,,left,0.551795,0,5,5,0,1,,,,,,,,,,,,,,,,,,,,,,,
,,,,,,,stim/VC_11.wav,5f19dc86afa07c0894f60578,2021-02-24_15h48.42.577,Spanish_step2,2020.2.3,Linux x86_64,60,,,right,0.473575,0,6,6,10,1,,,,,,,,,,,,,,,,,,,,,,,
,,,,,,,stim/VC_04.wav,5f19dc86afa07c0894f60578,2021-02-24_15h48.42.577,Spanish_step2,2020.2.3,Linux x86_64,60,,,left,0.941015,0,7,7,3,1,,,,,,,,,,,,,,,,,,,,,,,
,,,,,,,stim/VC_08.wav,5f19dc86afa07c0894f60578,2021-02-24_15h48.42.577,Spanish_step2,2020.2.3,Linux x86_64,60,,,right,0.60843,0,8,8,7,1,,,,,,,,,,,,,,,,,,,,,,,
,,,,,,,stim/VC_09.wav,5f19dc86afa07c0894f60578,2021-02-24_15h48.42.577,Spanish_step2,2020.2.3,Linux x86_64,60,,,right,0.813205,0,9,9,8,1,,,,,,,,,,,,,,,,,,,,,,,
,,,,,,,stim/VC_10.wav,5f19dc86afa07c0894f60578,2021-02-24_15h48.42.577,Spanish_step2,2020.2.3,Linux x86_64,60,,,right,1.023345,0,10,10,9,1,,,,,,,,,,,,,,,,,,,,,,,
,,,,,,,stim/VC_07.wav,5f19dc86afa07c0894f60578,2021-02-24_15h48.42.577,Spanish_step2,2020.2.3,Linux x86_64,60,,,left,0.63091,1,0,11,6,1,,,,,,,,,,,,,,,,,,,,,,,
,,,,,,,stim/VC_06.wav,5f19dc86afa07c0894f60578,2021-02-24_15h48.42.577,Spanish_step2,2020.2.3,Linux x86_64,60,,,left,0.56884,1,1,12,5,1,,,,,,,,,,,,,,,,,,,,,,,
,,,,,,,stim/VC_09.wav,5f19dc86afa07c0894f60578,2021-02-24_15h48.42.577,Spanish_step2,2020.2.3,Linux x86_64,60,,,right,0.47912,1,2,13,8,1,,,,,,,,,,,,,,,,,,,,,,,
,,,,,,,stim/VC_08.wav,5f19dc86afa07c0894f60578,2021-02-24_15h48.42.577,Spanish_step2,2020.2.3,Linux x86_64,60,,,right,1.392385,1,3,14,7,1,,,,,,,,,,,,,,,,,,,,,,,
,,,,,,,stim/VC_10.wav,5f19dc86afa07c0894f60578,2021-02-24_15h48.42.577,Spanish_step2,2020.2.3,Linux x86_64,60,,,right,0.827675,1,4,15,9,1,,,,,,,,,,,,,,,,,,,,,,,
,,,,,,,stim/VC_02.wav,5f19dc86afa07c0894f60578,2021-02-24_15h48.42.577,Spanish_step2,2020.2.3,Linux x86_64,60,,,left,0.550005,1,5,16,1,1,,,,,,,,,,,,,,,,,,,,,,,
,,,,,,,stim/VC_01.wav,5f19dc86afa07c0894f60578,2021-02-24_15h48.42.577,Spanish_step2,2020.2.3,Linux x86_64,60,,,left,0.45439,1,6,17,0,1,,,,,,,,,,,,,,,,,,,,,,,
,,,,,,,stim/VC_11.wav,5f19dc86afa07c0894f60578,2021-02-24_15h48.42.577,Spanish_step2,2020.2.3,Linux x86_64,60,,,right,0.550115,1,7,18,10,1,,,,,,,,,,,,,,,,,,,,,,,
,,,,,,,stim/VC_03.wav,5f19dc86afa07c0894f60578,2021-02-24_15h48.42.577,Spanish_step2,2020.2.3,Linux x86_64,60,,,left,0.57788,1,8,19,2,1,,,,,,,,,,,,,,,,,,,,,,,
,,,,,,,stim/VC_04.wav,5f19dc86afa07c0894f60578,2021-02-24_15h48.42.577,Spanish_step2,2020.2.3,Linux x86_64,60,,,left,0.618535,1,9,20,3,1,,,,,,,,,,,,,,,,,,,,,,,
,,,,,,,stim/VC_05.wav,5f19dc86afa07c0894f60578,2021-02-24_15h48.42.577,Spanish_step2,2020.2.3,Linux x86_64,60,,,left,0.508335,1,10,21,4,1,,,,,,,,,,,,,,,,,,,,,,,
,,,,,,,stim/VC_04.wav,5f19dc86afa07c0894f60578,2021-02-24_15h48.42.577,Spanish_step2,2020.2.3,Linux x86_64,60,,,left,0.50409,2,0,22,3,1,,,,,,,,,,,,,,,,,,,,,,,
,,,,,,,stim/VC_06.wav,5f19dc86afa07c0894f60578,2021-02-24_15h48.42.577,Spanish_step2,2020.2.3,Linux x86_64,60,,,left,0.486145,2,1,23,5,1,,,,,,,,,,,,,,,,,,,,,,,
,,,,,,,stim/VC_10.wav,5f19dc86afa07c0894f60578,2021-02-24_15h48.42.577,Spanish_step2,2020.2.3,Linux x86_64,60,,,right,0.4379,2,2,24,9,1,,,,,,,,,,,,,,,,,,,,,,,
,,,,,,,stim/VC_03.wav,5f19dc86afa07c0894f60578,2021-02-24_15h48.42.577,Spanish_step2,2020.2.3,Linux x86_64,60,,,left,0.50312,2,3,25,2,1,,,,,,,,,,,,,,,,,,,,,,,
,,,,,,,stim/VC_08.wav,5f19dc86afa07c0894f60578,2021-02-24_15h48.42.577,Spanish_step2,2020.2.3,Linux x86_64,60,,,right,0.48948,2,4,26,7,1,,,,,,,,,,,,,,,,,,,,,,,
,,,,,,,stim/VC_01.wav,5f19dc86afa07c0894f60578,2021-02-24_15h48.42.577,Spanish_step2,2020.2.3,Linux x86_64,60,,,left,0.42612,2,5,27,0,1,,,,,,,,,,,,,,,,,,,,,,,
,,,,,,,stim/VC_05.wav,5f19dc86afa07c0894f60578,2021-02-24_15h48.42.577,Spanish_step2,2020.2.3,Linux x86_64,60,,,left,0.41726,2,6,28,4,1,,,,,,,,,,,,,,,,,,,,,,,
,,,,,,,stim/VC_02.wav,5f19dc86afa07c0894f60578,2021-02-24_15h48.42.577,Spanish_step2,2020.2.3,Linux x86_64,60,,,left,0.587685,2,7,29,1,1,,,,,,,,,,,,,,,,,,,,,,,
,,,,,,,stim/VC_09.wav,5f19dc86afa07c0894f60578,2021-02-24_15h48.42.577,Spanish_step2,2020.2.3,Linux x86_64,60,,,right,0.568165,2,8,30,8,1,,,,,,,,,,,,,,,,,,,,,,,
,,,,,,,stim/VC_07.wav,5f19dc86afa07c0894f60578,2021-02-24_15h48.42.577,Spanish_step2,2020.2.3,Linux x86_64,60,,,right,0.93734,2,9,31,6,1,,,,,,,,,,,,,,,,,,,,,,,
,,,,,,,stim/VC_11.wav,5f19dc86afa07c0894f60578,2021-02-24_15h48.42.577,Spanish_step2,2020.2.3,Linux x86_64,60,,,right,0.675965,2,10,32,10,1,,,,,,,,,,,,,,,,,,,,,,,
,,,,,,,stim/VC_06.wav,5f19dc86afa07c0894f60578,2021-02-24_15h48.42.577,Spanish_step2,2020.2.3,Linux x86_64,60,,,left,0.750625,,,,,,7,2.060385,0,0,0,5,1,,,,,,,,,,,,,,,,
,,,,,,,stim/VC_04.wav,5f19dc86afa07c0894f60578,2021-02-24_15h48.42.577,Spanish_step2,2020.2.3,Linux x86_64,60,,,left,0.679545,,,,,,,,0,1,1,3,1,,,,,,,,,,,,,,,,
,,,,,,,stim/VC_02.wav,5f19dc86afa07c0894f60578,2021-02-24_15h48.42.577,Spanish_step2,2020.2.3,Linux x86_64,60,,,left,0.60211,,,,,,,,0,2,2,1,1,,,,,,,,,,,,,,,,
,,,,,,,stim/VC_05.wav,5f19dc86afa07c0894f60578,2021-02-24_15h48.42.577,Spanish_step2,2020.2.3,Linux x86_64,60,,,left,0.820315,,,,,,,,0,3,3,4,1,,,,,,,,,,,,,,,,
,,,,,,,stim/VC_03.wav,5f19dc86afa07c0894f60578,2021-02-24_15h48.42.577,Spanish_step2,2020.2.3,Linux x86_64,60,,,left,0.4687,,,,,,,,0,4,4,2,1,,,,,,,,,,,,,,,,
,,,,,,,stim/VC_11.wav,5f19dc86afa07c0894f60578,2021-02-24_15h48.42.577,Spanish_step2,2020.2.3,Linux x86_64,60,,,right,0.73608,,,,,,,,0,5,5,10,1,,,,,,,,,,,,,,,,
,,,,,,,stim/VC_01.wav,5f19dc86afa07c0894f60578,2021-02-24_15h48.42.577,Spanish_step2,2020.2.3,Linux x86_64,60,,,left,0.87813,,,,,,,,0,6,6,0,1,,,,,,,,,,,,,,,,
,,,,,,,stim/VC_10.wav,5f19dc86afa07c0894f60578,2021-02-24_15h48.42.577,Spanish_step2,2020.2.3,Linux x86_64,60,,,right,0.64013,,,,,,,,0,7,7,9,1,,,,,,,,,,,,,,,,
,,,,,,,stim/VC_08.wav,5f19dc86afa07c0894f60578,2021-02-24_15h48.42.577,Spanish_step2,2020.2.3,Linux x86_64,60,,,right,0.79827,,,,,,,,0,8,8,7,1,,,,,,,,,,,,,,,,
,,,,,,,stim/VC_07.wav,5f19dc86afa07c0894f60578,2021-02-24_15h48.42.577,Spanish_step2,2020.2.3,Linux x86_64,60,,,right,0.857325,,,,,,,,0,9,9,6,1,,,,,,,,,,,,,,,,
,,,,,,,stim/VC_09.wav,5f19dc86afa07c0894f60578,2021-02-24_15h48.42.577,Spanish_step2,2020.2.3,Linux x86_64,60,,,right,0.669,,,,,,,,0,10,10,8,1,,,,,,,,,,,,,,,,
,,,,,,,stim/VC_08.wav,5f19dc86afa07c0894f60578,2021-02-24_15h48.42.577,Spanish_step2,2020.2.3,Linux x86_64,60,,,left,0.61717,,,,,,,,1,0,11,7,1,,,,,,,,,,,,,,,,
,,,,,,,stim/VC_07.wav,5f19dc86afa07c0894f60578,2021-02-24_15h48.42.577,Spanish_step2,2020.2.3,Linux x86_64,60,,,right,0.873185,,,,,,,,1,1,12,6,1,,,,,,,,,,,,,,,,
,,,,,,,stim/VC_03.wav,5f19dc86afa07c0894f60578,2021-02-24_15h48.42.577,Spanish_step2,2020.2.3,Linux x86_64,60,,,left,0.495315,,,,,,,,1,2,13,2,1,,,,,,,,,,,,,,,,
,,,,,,,stim/VC_02.wav,5f19dc86afa07c0894f60578,2021-02-24_15h48.42.577,Spanish_step2,2020.2.3,Linux x86_64,60,,,left,0.46926,,,,,,,,1,3,14,1,1,,,,,,,,,,,,,,,,
,,,,,,,stim/VC_01.wav,5f19dc86afa07c0894f60578,2021-02-24_15h48.42.577,Spanish_step2,2020.2.3,Linux x86_64,60,,,left,0.715095,,,,,,,,1,4,15,0,1,,,,,,,,,,,,,,,,
,,,,,,,stim/VC_04.wav,5f19dc86afa07c0894f60578,2021-02-24_15h48.42.577,Spanish_step2,2020.2.3,Linux x86_64,60,,,left,0.56373,,,,,,,,1,5,16,3,1,,,,,,,,,,,,,,,,
,,,,,,,stim/VC_09.wav,5f19dc86afa07c0894f60578,2021-02-24_15h48.42.577,Spanish_step2,2020.2.3,Linux x86_64,60,,,right,0.580535,,,,,,,,1,6,17,8,1,,,,,,,,,,,,,,,,
,,,,,,,stim/VC_11.wav,5f19dc86afa07c0894f60578,2021-02-24_15h48.42.577,Spanish_step2,2020.2.3,Linux x86_64,60,,,right,0.640685,,,,,,,,1,7,18,10,1,,,,,,,,,,,,,,,,
,,,,,,,stim/VC_06.wav,5f19dc86afa07c0894f60578,2021-02-24_15h48.42.577,Spanish_step2,2020.2.3,Linux x86_64,60,,,left,0.754735,,,,,,,,1,8,19,5,1,,,,,,,,,,,,,,,,
,,,,,,,stim/VC_10.wav,5f19dc86afa07c0894f60578,2021-02-24_15h48.42.577,Spanish_step2,2020.2.3,Linux x86_64,60,,,right,0.6363,,,,,,,,1,9,20,9,1,,,,,,,,,,,,,,,,
,,,,,,,stim/VC_05.wav,5f19dc86afa07c0894f60578,2021-02-24_15h48.42.577,Spanish_step2,2020.2.3,Linux x86_64,60,,,left,0.39445,,,,,,,,1,10,21,4,1,,,,,,,,,,,,,,,,
,,,,,,,stim2/pa+05.wav,5f19dc86afa07c0894f60578,2021-02-24_15h48.42.577,Spanish_step2,2020.2.3,Linux x86_64,60,,,,,,,,,,,,,,,,,left,1.61918,0,0,0,0,1,,,,,,,,,
,,,,,,,stim2/pa+40.wav,5f19dc86afa07c0894f60578,2021-02-24_15h48.42.577,Spanish_step2,2020.2.3,Linux x86_64,60,,,,,,,,,,,,,,,,,left,0.954275,0,1,1,7,1,,,,,,,,,
,,,,,,,stim2/pa-25.wav,5f19dc86afa07c0894f60578,2021-02-24_15h48.42.577,Spanish_step2,2020.2.3,Linux x86_64,60,,,,,,,,,,,,,,,,,right,0.50077,0,2,2,14,1,,,,,,,,,
,,,,,,,stim2/pa-15.wav,5f19dc86afa07c0894f60578,2021-02-24_15h48.42.577,Spanish_step2,2020.2.3,Linux x86_64,60,,,,,,,,,,,,,,,,,right,0.653255,0,3,3,12,1,,,,,,,,,
,,,,,,,stim2/pa+10.wav,5f19dc86afa07c0894f60578,2021-02-24_15h48.42.577,Spanish_step2,2020.2.3,Linux x86_64,60,,,,,,,,,,,,,,,,,left,0.48276,0,4,4,1,1,,,,,,,,,
,,,,,,,stim2/pa+15.wav,5f19dc86afa07c0894f60578,2021-02-24_15h48.42.577,Spanish_step2,2020.2.3,Linux x86_64,60,,,,,,,,,,,,,,,,,left,0.36962,0,5,5,2,1,,,,,,,,,
,,,,,,,stim2/pa-30.wav,5f19dc86afa07c0894f60578,2021-02-24_15h48.42.577,Spanish_step2,2020.2.3,Linux x86_64,60,,,,,,,,,,,,,,,,,right,0.458715,0,6,6,15,1,,,,,,,,,
,,,,,,,stim2/pa-10.wav,5f19dc86afa07c0894f60578,2021-02-24_15h48.42.577,Spanish_step2,2020.2.3,Linux x86_64,60,,,,,,,,,,,,,,,,,right,0.649705,0,7,7,11,1,,,,,,,,,
,,,,,,,stim2/pa+45.wav,5f19dc86afa07c0894f60578,2021-02-24_15h48.42.577,Spanish_step2,2020.2.3,Linux x86_64,60,,,,,,,,,,,,,,,,,left,0.38743,0,8,8,8,1,,,,,,,,,
,,,,,,,stim2/pa+35.wav,5f19dc86afa07c0894f60578,2021-02-24_15h48.42.577,Spanish_step2,2020.2.3,Linux x86_64,60,,,,,,,,,,,,,,,,,left,0.48941,0,9,9,6,1,,,,,,,,,
,,,,,,,stim2/pa+50.wav,5f19dc86afa07c0894f60578,2021-02-24_15h48.42.577,Spanish_step2,2020.2.3,Linux x86_64,60,,,,,,,,,,,,,,,,,left,0.434955,0,10,10,9,1,,,,,,,,,
,,,,,,,stim2/pa-05.wav,5f19dc86afa07c0894f60578,2021-02-24_15h48.42.577,Spanish_step2,2020.2.3,Linux x86_64,60,,,,,,,,,,,,,,,,,left,0.399025,0,11,11,10,1,,,,,,,,,
,,,,,,,stim2/pa-35.wav,5f19dc86afa07c0894f60578,2021-02-24_15h48.42.577,Spanish_step2,2020.2.3,Linux x86_64,60,,,,,,,,,,,,,,,,,right,0.490155,0,12,12,16,1,,,,,,,,,
,,,,,,,stim2/pa+30.wav,5f19dc86afa07c0894f60578,2021-02-24_15h48.42.577,Spanish_step2,2020.2.3,Linux x86_64,60,,,,,,,,,,,,,,,,,left,0.50793,0,13,13,5,1,,,,,,,,,
,,,,,,,stim2/pa-20.wav,5f19dc86afa07c0894f60578,2021-02-24_15h48.42.577,Spanish_step2,2020.2.3,Linux x86_64,60,,,,,,,,,,,,,,,,,right,0.424045,0,14,14,13,1,,,,,,,,,
,,,,,,,stim2/pa+20.wav,5f19dc86afa07c0894f60578,2021-02-24_15h48.42.577,Spanish_step2,2020.2.3,Linux x86_64,60,,,,,,,,,,,,,,,,,left,0.399105,0,15,15,3,1,,,,,,,,,
,,,,,,,stim2/pa+25.wav,5f19dc86afa07c0894f60578,2021-02-24_15h48.42.577,Spanish_step2,2020.2.3,Linux x86_64,60,,,,,,,,,,,,,,,,,left,0.53603,0,16,16,4,1,,,,,,,,,
,,,,,,,stim2/pa+50.wav,5f19dc86afa07c0894f60578,2021-02-24_15h48.42.577,Spanish_step2,2020.2.3,Linux x86_64,60,,,,,,,,,,,,,,,,,left,0.482025,1,0,17,9,1,,,,,,,,,
,,,,,,,stim2/pa+35.wav,5f19dc86afa07c0894f60578,2021-02-24_15h48.42.577,Spanish_step2,2020.2.3,Linux x86_64,60,,,,,,,,,,,,,,,,,left,0.514265,1,1,18,6,1,,,,,,,,,
,,,,,,,stim2/pa-05.wav,5f19dc86afa07c0894f60578,2021-02-24_15h48.42.577,Spanish_step2,2020.2.3,Linux x86_64,60,,,,,,,,,,,,,,,,,right,0.66764,1,2,19,10,1,,,,,,,,,
,,,,,,,stim2/pa+10.wav,5f19dc86afa07c0894f60578,2021-02-24_15h48.42.577,Spanish_step2,2020.2.3,Linux x86_64,60,,,,,,,,,,,,,,,,,left,0.639475,1,3,20,1,1,,,,,,,,,
,,,,,,,stim2/pa-35.wav,5f19dc86afa07c0894f60578,2021-02-24_15h48.42.577,Spanish_step2,2020.2.3,Linux x86_64,60,,,,,,,,,,,,,,,,,right,0.492425,1,4,21,16,1,,,,,,,,,
,,,,,,,stim2/pa+45.wav,5f19dc86afa07c0894f60578,2021-02-24_15h48.42.577,Spanish_step2,2020.2.3,Linux x86_64,60,,,,,,,,,,,,,,,,,left,0.47366,1,5,22,8,1,,,,,,,,,
,,,,,,,stim2/pa-25.wav,5f19dc86afa07c0894f60578,2021-02-24_15h48.42.577,Spanish_step2,2020.2.3,Linux x86_64,60,,,,,,,,,,,,,,,,,right,0.610095,1,6,23,14,1,,,,,,,,,
,,,,,,,stim2/pa+30.wav,5f19dc86afa07c0894f60578,2021-02-24_15h48.42.577,Spanish_step2,2020.2.3,Linux x86_64,60,,,,,,,,,,,,,,,,,left,0.44961,1,7,24,5,1,,,,,,,,,
,,,,,,,stim2/pa+40.wav,5f19dc86afa07c0894f60578,2021-02-24_15h48.42.577,Spanish_step2,2020.2.3,Linux x86_64,60,,,,,,,,,,,,,,,,,left,1.771785,1,8,25,7,1,,,,,,,,,
,,,,,,,stim2/pa-10.wav,5f19dc86afa07c0894f60578,2021-02-24_15h48.42.577,Spanish_step2,2020.2.3,Linux x86_64,60,,,,,,,,,,,,,,,,,right,0.573425,1,9,26,11,1,,,,,,,,,
,,,,,,,stim2/pa+25.wav,5f19dc86afa07c0894f60578,2021-02-24_15h48.42.577,Spanish_step2,2020.2.3,Linux x86_64,60,,,,,,,,,,,,,,,,,left,1.03777,1,10,27,4,1,,,,,,,,,
,,,,,,,stim2/pa-30.wav,5f19dc86afa07c0894f60578,2021-02-24_15h48.42.577,Spanish_step2,2020.2.3,Linux x86_64,60,,,,,,,,,,,,,,,,,right,0.51818,1,11,28,15,1,,,,,,,,,
,,,,,,,stim2/pa+20.wav,5f19dc86afa07c0894f60578,2021-02-24_15h48.42.577,Spanish_step2,2020.2.3,Linux x86_64,60,,,,,,,,,,,,,,,,,left,0.51963,1,12,29,3,1,,,,,,,,,
,,,,,,,stim2/pa-20.wav,5f19dc86afa07c0894f60578,2021-02-24_15h48.42.577,Spanish_step2,2020.2.3,Linux x86_64,60,,,,,,,,,,,,,,,,,right,0.883135,1,13,30,13,1,,,,,,,,,
,,,,,,,stim2/pa+15.wav,5f19dc86afa07c0894f60578,2021-02-24_15h48.42.577,Spanish_step2,2020.2.3,Linux x86_64,60,,,,,,,,,,,,,,,,,left,0.638195,1,14,31,2,1,,,,,,,,,
,,,,,,,stim2/pa+05.wav,5f19dc86afa07c0894f60578,2021-02-24_15h48.42.577,Spanish_step2,2020.2.3,Linux x86_64,60,,,,,,,,,,,,,,,,,right,0.659385,1,15,32,0,1,,,,,,,,,
,,,,,,,stim2/pa-15.wav,5f19dc86afa07c0894f60578,2021-02-24_15h48.42.577,Spanish_step2,2020.2.3,Linux x86_64,60,,,,,,,,,,,,,,,,,right,0.90938,1,16,33,12,1,,,,,,,,,
,,,,,,,stim2/pa-10.wav,5f19dc86afa07c0894f60578,2021-02-24_15h48.42.577,Spanish_step2,2020.2.3,Linux x86_64,60,,,,,,,,,,,,,,,,,right,0.4377,2,0,34,11,1,,,,,,,,,
,,,,,,,stim2/pa-30.wav,5f19dc86afa07c0894f60578,2021-02-24_15h48.42.577,Spanish_step2,2020.2.3,Linux x86_64,60,,,,,,,,,,,,,,,,,right,0.489095,2,1,35,15,1,,,,,,,,,
,,,,,,,stim2/pa+30.wav,5f19dc86afa07c0894f60578,2021-02-24_15h48.42.577,Spanish_step2,2020.2.3,Linux x86_64,60,,,,,,,,,,,,,,,,,left,0.47796,2,2,36,5,1,,,,,,,,,
,,,,,,,stim2/pa+10.wav,5f19dc86afa07c0894f60578,2021-02-24_15h48.42.577,Spanish_step2,2020.2.3,Linux x86_64,60,,,,,,,,,,,,,,,,,right,0.616,2,3,37,1,1,,,,,,,,,
,,,,,,,stim2/pa-25.wav,5f19dc86afa07c0894f60578,2021-02-24_15h48.42.577,Spanish_step2,2020.2.3,Linux x86_64,60,,,,,,,,,,,,,,,,,right,1.173985,2,4,38,14,1,,,,,,,,,
,,,,,,,stim2/pa+35.wav,5f19dc86afa07c0894f60578,2021-02-24_15h48.42.577,Spanish_step2,2020.2.3,Linux x86_64,60,,,,,,,,,,,,,,,,,left,0.56996,2,5,39,6,1,,,,,,,,,
,,,,,,,stim2/pa+25.wav,5f19dc86afa07c0894f60578,2021-02-24_15h48.42.577,Spanish_step2,2020.2.3,Linux x86_64,60,,,,,,,,,,,,,,,,,left,0.59859,2,6,40,4,1,,,,,,,,,
,,,,,,,stim2/pa-05.wav,5f19dc86afa07c0894f60578,2021-02-24_15h48.42.577,Spanish_step2,2020.2.3,Linux x86_64,60,,,,,,,,,,,,,,,,,left,0.61656,2,7,41,10,1,,,,,,,,,
,,,,,,,stim2/pa-15.wav,5f19dc86afa07c0894f60578,2021-02-24_15h48.42.577,Spanish_step2,2020.2.3,Linux x86_64,60,,,,,,,,,,,,,,,,,right,0.68598,2,8,42,12,1,,,,,,,,,
,,,,,,,stim2/pa+50.wav,5f19dc86afa07c0894f60578,2021-02-24_15h48.42.577,Spanish_step2,2020.2.3,Linux x86_64,60,,,,,,,,,,,,,,,,,left,0.48356,2,9,43,9,1,,,,,,,,,
,,,,,,,stim2/pa-20.wav,5f19dc86afa07c0894f60578,2021-02-24_15h48.42.577,Spanish_step2,2020.2.3,Linux x86_64,60,,,,,,,,,,,,,,,,,right,0.60207,2,10,44,13,1,,,,,,,,,
,,,,,,,stim2/pa+05.wav,5f19dc86afa07c0894f60578,2021-02-24_15h48.42.577,Spanish_step2,2020.2.3,Linux x86_64,60,,,,,,,,,,,,,,,,,left,0.479875,2,11,45,0,1,,,,,,,,,
,,,,,,,stim2/pa+15.wav,5f19dc86afa07c0894f60578,2021-02-24_15h48.42.577,Spanish_step2,2020.2.3,Linux x86_64,60,,,,,,,,,,,,,,,,,right,0.377195,2,12,46,2,1,,,,,,,,,
,,,,,,,stim2/pa+45.wav,5f19dc86afa07c0894f60578,2021-02-24_15h48.42.577,Spanish_step2,2020.2.3,Linux x86_64,60,,,,,,,,,,,,,,,,,left,0.27045,2,13,47,8,1,,,,,,,,,
,,,,,,,stim2/pa-35.wav,5f19dc86afa07c0894f60578,2021-02-24_15h48.42.577,Spanish_step2,2020.2.3,Linux x86_64,60,,,,,,,,,,,,,,,,,right,0.35386,2,14,48,16,1,,,,,,,,,
,,,,,,,stim2/pa+40.wav,5f19dc86afa07c0894f60578,2021-02-24_15h48.42.577,Spanish_step2,2020.2.3,Linux x86_64,60,,,,,,,,,,,,,,,,,left,0.28649,2,15,49,7,1,,,,,,,,,
,,,,,,,stim2/pa+20.wav,5f19dc86afa07c0894f60578,2021-02-24_15h48.42.577,Spanish_step2,2020.2.3,Linux x86_64,60,,,,,,,,,,,,,,,,,right,0.32274,2,16,50,3,1,,,,,,,,,
,,,,,,,stim2/pa+05.wav,5f19dc86afa07c0894f60578,2021-02-24_15h48.42.577,Spanish_step2,2020.2.3,Linux x86_64,60,,,,,,,,,,,,,,,,,left,1.13241,,,,,,z,1.405575,0,0,0,0,1,,
,,,,,,,stim2/pa+10.wav,5f19dc86afa07c0894f60578,2021-02-24_15h48.42.577,Spanish_step2,2020.2.3,Linux x86_64,60,,,,,,,,,,,,,,,,,left,0.66135,,,,,,,,0,1,1,1,1,,
,,,,,,,stim2/pa+45.wav,5f19dc86afa07c0894f60578,2021-02-24_15h48.42.577,Spanish_step2,2020.2.3,Linux x86_64,60,,,,,,,,,,,,,,,,,left,0.756605,,,,,,,,0,2,2,8,1,,
,,,,,,,stim2/pa-25.wav,5f19dc86afa07c0894f60578,2021-02-24_15h48.42.577,Spanish_step2,2020.2.3,Linux x86_64,60,,,,,,,,,,,,,,,,,right,0.419525,,,,,,,,0,3,3,14,1,,
,,,,,,,stim2/pa+50.wav,5f19dc86afa07c0894f60578,2021-02-24_15h48.42.577,Spanish_step2,2020.2.3,Linux x86_64,60,,,,,,,,,,,,,,,,,left,0.667795,,,,,,,,0,4,4,9,1,,
,,,,,,,stim2/pa+30.wav,5f19dc86afa07c0894f60578,2021-02-24_15h48.42.577,Spanish_step2,2020.2.3,Linux x86_64,60,,,,,,,,,,,,,,,,,left,0.92517,,,,,,,,0,5,5,5,1,,
,,,,,,,stim2/pa-20.wav,5f19dc86afa07c0894f60578,2021-02-24_15h48.42.577,Spanish_step2,2020.2.3,Linux x86_64,60,,,,,,,,,,,,,,,,,right,0.55809,,,,,,,,0,6,6,13,1,,
,,,,,,,stim2/pa+40.wav,5f19dc86afa07c0894f60578,2021-02-24_15h48.42.577,Spanish_step2,2020.2.3,Linux x86_64,60,,,,,,,,,,,,,,,,,left,0.680335,,,,,,,,0,7,7,7,1,,
,,,,,,,stim2/pa+15.wav,5f19dc86afa07c0894f60578,2021-02-24_15h48.42.577,Spanish_step2,2020.2.3,Linux x86_64,60,,,,,,,,,,,,,,,,,left,0.490805,,,,,,,,0,8,8,2,1,,
,,,,,,,stim2/pa-30.wav,5f19dc86afa07c0894f60578,2021-02-24_15h48.42.577,Spanish_step2,2020.2.3,Linux x86_64,60,,,,,,,,,,,,,,,,,right,0.52976,,,,,,,,0,9,9,15,1,,
,,,,,,,stim2/pa-15.wav,5f19dc86afa07c0894f60578,2021-02-24_15h48.42.577,Spanish_step2,2020.2.3,Linux x86_64,60,,,,,,,,,,,,,,,,,right,0.899565,,,,,,,,0,10,10,12,1,,
,,,,,,,stim2/pa-05.wav,5f19dc86afa07c0894f60578,2021-02-24_15h48.42.577,Spanish_step2,2020.2.3,Linux x86_64,60,,,,,,,,,,,,,,,,,right,0.891735,,,,,,,,0,11,11,10,1,,
,,,,,,,stim2/pa+25.wav,5f19dc86afa07c0894f60578,2021-02-24_15h48.42.577,Spanish_step2,2020.2.3,Linux x86_64,60,,,,,,,,,,,,,,,,,left,0.51097,,,,,,,,0,12,12,4,1,,
,,,,,,,stim2/pa-10.wav,5f19dc86afa07c0894f60578,2021-02-24_15h48.42.577,Spanish_step2,2020.2.3,Linux x86_64,60,,,,,,,,,,,,,,,,,right,0.54401,,,,,,,,0,13,13,11,1,,
,,,,,,,stim2/pa+35.wav,5f19dc86afa07c0894f60578,2021-02-24_15h48.42.577,Spanish_step2,2020.2.3,Linux x86_64,60,,,,,,,,,,,,,,,,,left,0.50364,,,,,,,,0,14,14,6,1,,
,,,,,,,stim2/pa-35.wav,5f19dc86afa07c0894f60578,2021-02-24_15h48.42.577,Spanish_step2,2020.2.3,Linux x86_64,60,,,,,,,,,,,,,,,,,right,0.5371,,,,,,,,0,15,15,16,1,,
,,,,,,,stim2/pa+20.wav,5f19dc86afa07c0894f60578,2021-02-24_15h48.42.577,Spanish_step2,2020.2.3,Linux x86_64,60,,,,,,,,,,,,,,,,,left,0.399555,,,,,,,,0,16,16,3,1,,
,,,,,,,stim2/pa-10.wav,5f19dc86afa07c0894f60578,2021-02-24_15h48.42.577,Spanish_step2,2020.2.3,Linux x86_64,60,,,,,,,,,,,,,,,,,right,0.406825,,,,,,,,1,0,17,11,1,,
,,,,,,,stim2/pa-30.wav,5f19dc86afa07c0894f60578,2021-02-24_15h48.42.577,Spanish_step2,2020.2.3,Linux x86_64,60,,,,,,,,,,,,,,,,,right,0.63066,,,,,,,,1,1,18,15,1,,
,,,,,,,stim2/pa-35.wav,5f19dc86afa07c0894f60578,2021-02-24_15h48.42.577,Spanish_step2,2020.2.3,Linux x86_64,60,,,,,,,,,,,,,,,,,right,0.539725,,,,,,,,1,2,19,16,1,,
,,,,,,,stim2/pa+40.wav,5f19dc86afa07c0894f60578,2021-02-24_15h48.42.577,Spanish_step2,2020.2.3,Linux x86_64,60,,,,,,,,,,,,,,,,,left,0.43023,,,,,,,,1,3,20,7,1,,
,,,,,,,stim2/pa-25.wav,5f19dc86afa07c0894f60578,2021-02-24_15h48.42.577,Spanish_step2,2020.2.3,Linux x86_64,60,,,,,,,,,,,,,,,,,right,0.60874,,,,,,,,1,4,21,14,1,,
,,,,,,,stim2/pa+15.wav,5f19dc86afa07c0894f60578,2021-02-24_15h48.42.577,Spanish_step2,2020.2.3,Linux x86_64,60,,,,,,,,,,,,,,,,,left,0.53979,,,,,,,,1,5,22,2,1,,
,,,,,,,stim2/pa+25.wav,5f19dc86afa07c0894f60578,2021-02-24_15h48.42.577,Spanish_step2,2020.2.3,Linux x86_64,60,,,,,,,,,,,,,,,,,right,0.357195,,,,,,,,1,6,23,4,1,,
,,,,,,,stim2/pa-15.wav,5f19dc86afa07c0894f60578,2021-02-24_15h48.42.577,Spanish_step2,2020.2.3,Linux x86_64,60,,,,,,,,,,,,,,,,,right,0.82031,,,,,,,,1,7,24,12,1,,
,,,,,,,stim2/pa-05.wav,5f19dc86afa07c0894f60578,2021-02-24_15h48.42.577,Spanish_step2,2020.2.3,Linux x86_64,60,,,,,,,,,,,,,,,,,right,0.85221,,,,,,,,1,8,25,10,1,,
,,,,,,,stim2/pa-20.wav,5f19dc86afa07c0894f60578,2021-02-24_15h48.42.577,Spanish_step2,2020.2.3,Linux x86_64,60,,,,,,,,,,,,,,,,,right,0.699485,,,,,,,,1,9,26,13,1,,
,,,,,,,stim2/pa+10.wav,5f19dc86afa07c0894f60578,2021-02-24_15h48.42.577,Spanish_step2,2020.2.3,Linux x86_64,60,,,,,,,,,,,,,,,,,left,0.54864,,,,,,,,1,10,27,1,1,,
,,,,,,,stim2/pa+05.wav,5f19dc86afa07c0894f60578,2021-02-24_15h48.42.577,Spanish_step2,2020.2.3,Linux x86_64,60,,,,,,,,,,,,,,,,,left,0.52243,,,,,,,,1,11,28,0,1,,
,,,,,,,stim2/pa+50.wav,5f19dc86afa07c0894f60578,2021-02-24_15h48.42.577,Spanish_step2,2020.2.3,Linux x86_64,60,,,,,,,,,,,,,,,,,left,0.47172,,,,,,,,1,12,29,9,1,,
,,,,,,,stim2/pa+35.wav,5f19dc86afa07c0894f60578,2021-02-24_15h48.42.577,Spanish_step2,2020.2.3,Linux x86_64,60,,,,,,,,,,,,,,,,,left,0.52323,,,,,,,,1,13,30,6,1,,
,,,,,,,stim2/pa+30.wav,5f19dc86afa07c0894f60578,2021-02-24_15h48.42.577,Spanish_step2,2020.2.3,Linux x86_64,60,,,,,,,,,,,,,,,,,left,0.500555,,,,,,,,1,14,31,5,1,,
,,,,,,,stim2/pa+20.wav,5f19dc86afa07c0894f60578,2021-02-24_15h48.42.577,Spanish_step2,2020.2.3,Linux x86_64,60,,,,,,,,,,,,,,,,,left,0.51973,,,,,,,,1,15,32,3,1,,
,,,,,,,stim2/pa+45.wav,5f19dc86afa07c0894f60578,2021-02-24_15h48.42.577,Spanish_step2,2020.2.3,Linux x86_64,60,,,,,,,,,,,,,,,,,left,0.818105,,,,,,,,1,16,33,8,1,,
,,,,,,,,5f19dc86afa07c0894f60578,2021-02-24_15h48.42.577,Spanish_step2,2020.2.3,Linux x86_64,60,,,,,,,,,,,,,,,,,,,,,,,,,,,,,,,space,6.218575
