resp.keys,resp.rt,trials.thisRepN,trials.thisTrialN,trials.thisN,trials.thisIndex,trials.ran,stimuli,participant,date,expName,psychopyVersion,OS,frameRate,gotResponse.keys,gotResponse.rt,resp_2.keys,resp_2.rt,trials_2.thisRepN,trials_2.thisTrialN,trials_2.thisN,trials_2.thisIndex,trials_2.ran,key_resp_3.keys,key_resp_3.rt,trials_4.thisRepN,trials_4.thisTrialN,trials_4.thisN,trials_4.thisIndex,trials_4.ran,resp_3.keys,resp_3.rt,trials_3.thisRepN,trials_3.thisTrialN,trials_3.thisN,trials_3.thisIndex,trials_3.ran,key_resp_2.keys,key_resp_2.rt,trials_5.thisRepN,trials_5.thisTrialN,trials_5.thisN,trials_5.thisIndex,trials_5.ran,key_resp.keys,key_resp.rt
left,1.79506,0,0,0,0,1,stim/VC_01.wav,5f4bf4536b68b57e64ad4f2d,2021-02-24_17h54.57.025,Spanish_step2,2020.2.3,Win32,60,,,,,,,,,,,,,,,,,,,,,,,,,,,,,,,,
right,0.73118,0,1,1,1,1,stim/VC_11.wav,5f4bf4536b68b57e64ad4f2d,2021-02-24_17h54.57.025,Spanish_step2,2020.2.3,Win32,60,,,,,,,,,,,,,,,,,,,,,,,,,,,,,,,,
,,,,,,,stim/VC_06.wav,5f4bf4536b68b57e64ad4f2d,2021-02-24_17h54.57.025,Spanish_step2,2020.2.3,Win32,60,space,0.87768,right,0.893345,0,0,0,5,1,,,,,,,,,,,,,,,,,,,,,,,
,,,,,,,stim/VC_04.wav,5f4bf4536b68b57e64ad4f2d,2021-02-24_17h54.57.025,Spanish_step2,2020.2.3,Win32,60,,,right,0.852075,0,1,1,3,1,,,,,,,,,,,,,,,,,,,,,,,
,,,,,,,stim/VC_11.wav,5f4bf4536b68b57e64ad4f2d,2021-02-24_17h54.57.025,Spanish_step2,2020.2.3,Win32,60,,,right,0.64554,0,2,2,10,1,,,,,,,,,,,,,,,,,,,,,,,
,,,,,,,stim/VC_09.wav,5f4bf4536b68b57e64ad4f2d,2021-02-24_17h54.57.025,Spanish_step2,2020.2.3,Win32,60,,,right,0.45512,0,3,3,8,1,,,,,,,,,,,,,,,,,,,,,,,
,,,,,,,stim/VC_08.wav,5f4bf4536b68b57e64ad4f2d,2021-02-24_17h54.57.025,Spanish_step2,2020.2.3,Win32,60,,,right,0.38384,0,4,4,7,1,,,,,,,,,,,,,,,,,,,,,,,
,,,,,,,stim/VC_01.wav,5f4bf4536b68b57e64ad4f2d,2021-02-24_17h54.57.025,Spanish_step2,2020.2.3,Win32,60,,,left,0.468055,0,5,5,0,1,,,,,,,,,,,,,,,,,,,,,,,
,,,,,,,stim/VC_05.wav,5f4bf4536b68b57e64ad4f2d,2021-02-24_17h54.57.025,Spanish_step2,2020.2.3,Win32,60,,,right,0.497645,0,6,6,4,1,,,,,,,,,,,,,,,,,,,,,,,
,,,,,,,stim/VC_07.wav,5f4bf4536b68b57e64ad4f2d,2021-02-24_17h54.57.025,Spanish_step2,2020.2.3,Win32,60,,,right,0.51307,0,7,7,6,1,,,,,,,,,,,,,,,,,,,,,,,
,,,,,,,stim/VC_10.wav,5f4bf4536b68b57e64ad4f2d,2021-02-24_17h54.57.025,Spanish_step2,2020.2.3,Win32,60,,,right,0.479385,0,8,8,9,1,,,,,,,,,,,,,,,,,,,,,,,
,,,,,,,stim/VC_02.wav,5f4bf4536b68b57e64ad4f2d,2021-02-24_17h54.57.025,Spanish_step2,2020.2.3,Win32,60,,,left,0.438985,0,9,9,1,1,,,,,,,,,,,,,,,,,,,,,,,
,,,,,,,stim/VC_03.wav,5f4bf4536b68b57e64ad4f2d,2021-02-24_17h54.57.025,Spanish_step2,2020.2.3,Win32,60,,,left,0.92104,0,10,10,2,1,,,,,,,,,,,,,,,,,,,,,,,
,,,,,,,stim/VC_03.wav,5f4bf4536b68b57e64ad4f2d,2021-02-24_17h54.57.025,Spanish_step2,2020.2.3,Win32,60,,,left,0.493995,1,0,11,2,1,,,,,,,,,,,,,,,,,,,,,,,
,,,,,,,stim/VC_08.wav,5f4bf4536b68b57e64ad4f2d,2021-02-24_17h54.57.025,Spanish_step2,2020.2.3,Win32,60,,,right,0.445945,1,1,12,7,1,,,,,,,,,,,,,,,,,,,,,,,
,,,,,,,stim/VC_10.wav,5f4bf4536b68b57e64ad4f2d,2021-02-24_17h54.57.025,Spanish_step2,2020.2.3,Win32,60,,,right,0.450635,1,2,13,9,1,,,,,,,,,,,,,,,,,,,,,,,
,,,,,,,stim/VC_11.wav,5f4bf4536b68b57e64ad4f2d,2021-02-24_17h54.57.025,Spanish_step2,2020.2.3,Win32,60,,,right,0.46738,1,3,14,10,1,,,,,,,,,,,,,,,,,,,,,,,
,,,,,,,stim/VC_07.wav,5f4bf4536b68b57e64ad4f2d,2021-02-24_17h54.57.025,Spanish_step2,2020.2.3,Win32,60,,,right,0.418315,1,4,15,6,1,,,,,,,,,,,,,,,,,,,,,,,
,,,,,,,stim/VC_06.wav,5f4bf4536b68b57e64ad4f2d,2021-02-24_17h54.57.025,Spanish_step2,2020.2.3,Win32,60,,,right,0.468375,1,5,16,5,1,,,,,,,,,,,,,,,,,,,,,,,
,,,,,,,stim/VC_09.wav,5f4bf4536b68b57e64ad4f2d,2021-02-24_17h54.57.025,Spanish_step2,2020.2.3,Win32,60,,,right,0.434945,1,6,17,8,1,,,,,,,,,,,,,,,,,,,,,,,
,,,,,,,stim/VC_01.wav,5f4bf4536b68b57e64ad4f2d,2021-02-24_17h54.57.025,Spanish_step2,2020.2.3,Win32,60,,,left,0.43573,1,7,18,0,1,,,,,,,,,,,,,,,,,,,,,,,
,,,,,,,stim/VC_05.wav,5f4bf4536b68b57e64ad4f2d,2021-02-24_17h54.57.025,Spanish_step2,2020.2.3,Win32,60,,,left,1.013215,1,8,19,4,1,,,,,,,,,,,,,,,,,,,,,,,
,,,,,,,stim/VC_02.wav,5f4bf4536b68b57e64ad4f2d,2021-02-24_17h54.57.025,Spanish_step2,2020.2.3,Win32,60,,,left,0.48775,1,9,20,1,1,,,,,,,,,,,,,,,,,,,,,,,
,,,,,,,stim/VC_04.wav,5f4bf4536b68b57e64ad4f2d,2021-02-24_17h54.57.025,Spanish_step2,2020.2.3,Win32,60,,,right,0.67116,1,10,21,3,1,,,,,,,,,,,,,,,,,,,,,,,
,,,,,,,stim/VC_01.wav,5f4bf4536b68b57e64ad4f2d,2021-02-24_17h54.57.025,Spanish_step2,2020.2.3,Win32,60,,,left,0.670905,2,0,22,0,1,,,,,,,,,,,,,,,,,,,,,,,
,,,,,,,stim/VC_04.wav,5f4bf4536b68b57e64ad4f2d,2021-02-24_17h54.57.025,Spanish_step2,2020.2.3,Win32,60,,,right,0.839385,2,1,23,3,1,,,,,,,,,,,,,,,,,,,,,,,
,,,,,,,stim/VC_05.wav,5f4bf4536b68b57e64ad4f2d,2021-02-24_17h54.57.025,Spanish_step2,2020.2.3,Win32,60,,,right,0.56018,2,2,24,4,1,,,,,,,,,,,,,,,,,,,,,,,
,,,,,,,stim/VC_03.wav,5f4bf4536b68b57e64ad4f2d,2021-02-24_17h54.57.025,Spanish_step2,2020.2.3,Win32,60,,,left,0.42739,2,3,25,2,1,,,,,,,,,,,,,,,,,,,,,,,
,,,,,,,stim/VC_09.wav,5f4bf4536b68b57e64ad4f2d,2021-02-24_17h54.57.025,Spanish_step2,2020.2.3,Win32,60,,,right,0.439515,2,4,26,8,1,,,,,,,,,,,,,,,,,,,,,,,
,,,,,,,stim/VC_02.wav,5f4bf4536b68b57e64ad4f2d,2021-02-24_17h54.57.025,Spanish_step2,2020.2.3,Win32,60,,,left,0.425075,2,5,27,1,1,,,,,,,,,,,,,,,,,,,,,,,
,,,,,,,stim/VC_08.wav,5f4bf4536b68b57e64ad4f2d,2021-02-24_17h54.57.025,Spanish_step2,2020.2.3,Win32,60,,,right,0.587075,2,6,28,7,1,,,,,,,,,,,,,,,,,,,,,,,
,,,,,,,stim/VC_11.wav,5f4bf4536b68b57e64ad4f2d,2021-02-24_17h54.57.025,Spanish_step2,2020.2.3,Win32,60,,,right,0.558345,2,7,29,10,1,,,,,,,,,,,,,,,,,,,,,,,
,,,,,,,stim/VC_07.wav,5f4bf4536b68b57e64ad4f2d,2021-02-24_17h54.57.025,Spanish_step2,2020.2.3,Win32,60,,,right,0.578945,2,8,30,6,1,,,,,,,,,,,,,,,,,,,,,,,
,,,,,,,stim/VC_06.wav,5f4bf4536b68b57e64ad4f2d,2021-02-24_17h54.57.025,Spanish_step2,2020.2.3,Win32,60,,,right,0.510965,2,9,31,5,1,,,,,,,,,,,,,,,,,,,,,,,
,,,,,,,stim/VC_10.wav,5f4bf4536b68b57e64ad4f2d,2021-02-24_17h54.57.025,Spanish_step2,2020.2.3,Win32,60,,,right,0.494055,2,10,32,9,1,,,,,,,,,,,,,,,,,,,,,,,
,,,,,,,stim/VC_02.wav,5f4bf4536b68b57e64ad4f2d,2021-02-24_17h54.57.025,Spanish_step2,2020.2.3,Win32,60,,,left,0.98847,,,,,,7,2.986395,0,0,0,1,1,,,,,,,,,,,,,,,,
,,,,,,,stim/VC_06.wav,5f4bf4536b68b57e64ad4f2d,2021-02-24_17h54.57.025,Spanish_step2,2020.2.3,Win32,60,,,right,0.511905,,,,,,,,0,1,1,5,1,,,,,,,,,,,,,,,,
,,,,,,,stim/VC_04.wav,5f4bf4536b68b57e64ad4f2d,2021-02-24_17h54.57.025,Spanish_step2,2020.2.3,Win32,60,,,left,1.862325,,,,,,,,0,2,2,3,1,,,,,,,,,,,,,,,,
,,,,,,,stim/VC_01.wav,5f4bf4536b68b57e64ad4f2d,2021-02-24_17h54.57.025,Spanish_step2,2020.2.3,Win32,60,,,left,0.567185,,,,,,,,0,3,3,0,1,,,,,,,,,,,,,,,,
,,,,,,,stim/VC_09.wav,5f4bf4536b68b57e64ad4f2d,2021-02-24_17h54.57.025,Spanish_step2,2020.2.3,Win32,60,,,right,0.41127,,,,,,,,0,4,4,8,1,,,,,,,,,,,,,,,,
,,,,,,,stim/VC_03.wav,5f4bf4536b68b57e64ad4f2d,2021-02-24_17h54.57.025,Spanish_step2,2020.2.3,Win32,60,,,left,0.57375,,,,,,,,0,5,5,2,1,,,,,,,,,,,,,,,,
,,,,,,,stim/VC_11.wav,5f4bf4536b68b57e64ad4f2d,2021-02-24_17h54.57.025,Spanish_step2,2020.2.3,Win32,60,,,right,0.457215,,,,,,,,0,6,6,10,1,,,,,,,,,,,,,,,,
,,,,,,,stim/VC_10.wav,5f4bf4536b68b57e64ad4f2d,2021-02-24_17h54.57.025,Spanish_step2,2020.2.3,Win32,60,,,right,0.49102,,,,,,,,0,7,7,9,1,,,,,,,,,,,,,,,,
,,,,,,,stim/VC_07.wav,5f4bf4536b68b57e64ad4f2d,2021-02-24_17h54.57.025,Spanish_step2,2020.2.3,Win32,60,,,right,0.51356,,,,,,,,0,8,8,6,1,,,,,,,,,,,,,,,,
,,,,,,,stim/VC_05.wav,5f4bf4536b68b57e64ad4f2d,2021-02-24_17h54.57.025,Spanish_step2,2020.2.3,Win32,60,,,left,0.92058,,,,,,,,0,9,9,4,1,,,,,,,,,,,,,,,,
,,,,,,,stim/VC_08.wav,5f4bf4536b68b57e64ad4f2d,2021-02-24_17h54.57.025,Spanish_step2,2020.2.3,Win32,60,,,right,0.52611,,,,,,,,0,10,10,7,1,,,,,,,,,,,,,,,,
,,,,,,,stim/VC_02.wav,5f4bf4536b68b57e64ad4f2d,2021-02-24_17h54.57.025,Spanish_step2,2020.2.3,Win32,60,,,left,0.45236,,,,,,,,1,0,11,1,1,,,,,,,,,,,,,,,,
,,,,,,,stim/VC_08.wav,5f4bf4536b68b57e64ad4f2d,2021-02-24_17h54.57.025,Spanish_step2,2020.2.3,Win32,60,,,right,0.46934,,,,,,,,1,1,12,7,1,,,,,,,,,,,,,,,,
,,,,,,,stim/VC_01.wav,5f4bf4536b68b57e64ad4f2d,2021-02-24_17h54.57.025,Spanish_step2,2020.2.3,Win32,60,,,left,0.38111,,,,,,,,1,2,13,0,1,,,,,,,,,,,,,,,,
,,,,,,,stim/VC_03.wav,5f4bf4536b68b57e64ad4f2d,2021-02-24_17h54.57.025,Spanish_step2,2020.2.3,Win32,60,,,left,0.98367,,,,,,,,1,3,14,2,1,,,,,,,,,,,,,,,,
,,,,,,,stim/VC_06.wav,5f4bf4536b68b57e64ad4f2d,2021-02-24_17h54.57.025,Spanish_step2,2020.2.3,Win32,60,,,right,0.525825,,,,,,,,1,4,15,5,1,,,,,,,,,,,,,,,,
,,,,,,,stim/VC_10.wav,5f4bf4536b68b57e64ad4f2d,2021-02-24_17h54.57.025,Spanish_step2,2020.2.3,Win32,60,,,right,0.635945,,,,,,,,1,5,16,9,1,,,,,,,,,,,,,,,,
,,,,,,,stim/VC_11.wav,5f4bf4536b68b57e64ad4f2d,2021-02-24_17h54.57.025,Spanish_step2,2020.2.3,Win32,60,,,right,0.460265,,,,,,,,1,6,17,10,1,,,,,,,,,,,,,,,,
,,,,,,,stim/VC_05.wav,5f4bf4536b68b57e64ad4f2d,2021-02-24_17h54.57.025,Spanish_step2,2020.2.3,Win32,60,,,left,1.30892,,,,,,,,1,7,18,4,1,,,,,,,,,,,,,,,,
,,,,,,,stim/VC_09.wav,5f4bf4536b68b57e64ad4f2d,2021-02-24_17h54.57.025,Spanish_step2,2020.2.3,Win32,60,,,right,0.491375,,,,,,,,1,8,19,8,1,,,,,,,,,,,,,,,,
,,,,,,,stim/VC_07.wav,5f4bf4536b68b57e64ad4f2d,2021-02-24_17h54.57.025,Spanish_step2,2020.2.3,Win32,60,,,right,0.52257,,,,,,,,1,9,20,6,1,,,,,,,,,,,,,,,,
,,,,,,,stim/VC_04.wav,5f4bf4536b68b57e64ad4f2d,2021-02-24_17h54.57.025,Spanish_step2,2020.2.3,Win32,60,,,left,0.7937,,,,,,,,1,10,21,3,1,,,,,,,,,,,,,,,,
,,,,,,,stim2/pa+30.wav,5f4bf4536b68b57e64ad4f2d,2021-02-24_17h54.57.025,Spanish_step2,2020.2.3,Win32,60,,,,,,,,,,,,,,,,,left,1.61306,0,0,0,5,1,,,,,,,,,
,,,,,,,stim2/pa+50.wav,5f4bf4536b68b57e64ad4f2d,2021-02-24_17h54.57.025,Spanish_step2,2020.2.3,Win32,60,,,,,,,,,,,,,,,,,right,0.88829,0,1,1,9,1,,,,,,,,,
,,,,,,,stim2/pa+20.wav,5f4bf4536b68b57e64ad4f2d,2021-02-24_17h54.57.025,Spanish_step2,2020.2.3,Win32,60,,,,,,,,,,,,,,,,,left,0.42384,0,2,2,3,1,,,,,,,,,
,,,,,,,stim2/pa+40.wav,5f4bf4536b68b57e64ad4f2d,2021-02-24_17h54.57.025,Spanish_step2,2020.2.3,Win32,60,,,,,,,,,,,,,,,,,left,0.441645,0,3,3,7,1,,,,,,,,,
,,,,,,,stim2/pa-20.wav,5f4bf4536b68b57e64ad4f2d,2021-02-24_17h54.57.025,Spanish_step2,2020.2.3,Win32,60,,,,,,,,,,,,,,,,,right,0.444125,0,4,4,13,1,,,,,,,,,
,,,,,,,stim2/pa+45.wav,5f4bf4536b68b57e64ad4f2d,2021-02-24_17h54.57.025,Spanish_step2,2020.2.3,Win32,60,,,,,,,,,,,,,,,,,left,0.39759,0,5,5,8,1,,,,,,,,,
,,,,,,,stim2/pa-15.wav,5f4bf4536b68b57e64ad4f2d,2021-02-24_17h54.57.025,Spanish_step2,2020.2.3,Win32,60,,,,,,,,,,,,,,,,,right,0.37568,0,6,6,12,1,,,,,,,,,
,,,,,,,stim2/pa+10.wav,5f4bf4536b68b57e64ad4f2d,2021-02-24_17h54.57.025,Spanish_step2,2020.2.3,Win32,60,,,,,,,,,,,,,,,,,left,0.36349,0,7,7,1,1,,,,,,,,,
,,,,,,,stim2/pa+05.wav,5f4bf4536b68b57e64ad4f2d,2021-02-24_17h54.57.025,Spanish_step2,2020.2.3,Win32,60,,,,,,,,,,,,,,,,,right,0.34362,0,8,8,0,1,,,,,,,,,
,,,,,,,stim2/pa-10.wav,5f4bf4536b68b57e64ad4f2d,2021-02-24_17h54.57.025,Spanish_step2,2020.2.3,Win32,60,,,,,,,,,,,,,,,,,right,0.767475,0,9,9,11,1,,,,,,,,,
,,,,,,,stim2/pa+35.wav,5f4bf4536b68b57e64ad4f2d,2021-02-24_17h54.57.025,Spanish_step2,2020.2.3,Win32,60,,,,,,,,,,,,,,,,,left,1.386175,0,10,10,6,1,,,,,,,,,
,,,,,,,stim2/pa-35.wav,5f4bf4536b68b57e64ad4f2d,2021-02-24_17h54.57.025,Spanish_step2,2020.2.3,Win32,60,,,,,,,,,,,,,,,,,right,0.469175,0,11,11,16,1,,,,,,,,,
,,,,,,,stim2/pa+15.wav,5f4bf4536b68b57e64ad4f2d,2021-02-24_17h54.57.025,Spanish_step2,2020.2.3,Win32,60,,,,,,,,,,,,,,,,,left,0.550995,0,12,12,2,1,,,,,,,,,
,,,,,,,stim2/pa-05.wav,5f4bf4536b68b57e64ad4f2d,2021-02-24_17h54.57.025,Spanish_step2,2020.2.3,Win32,60,,,,,,,,,,,,,,,,,left,0.609215,0,13,13,10,1,,,,,,,,,
,,,,,,,stim2/pa-25.wav,5f4bf4536b68b57e64ad4f2d,2021-02-24_17h54.57.025,Spanish_step2,2020.2.3,Win32,60,,,,,,,,,,,,,,,,,left,0.42872,0,14,14,14,1,,,,,,,,,
,,,,,,,stim2/pa+25.wav,5f4bf4536b68b57e64ad4f2d,2021-02-24_17h54.57.025,Spanish_step2,2020.2.3,Win32,60,,,,,,,,,,,,,,,,,left,0.41472,0,15,15,4,1,,,,,,,,,
,,,,,,,stim2/pa-30.wav,5f4bf4536b68b57e64ad4f2d,2021-02-24_17h54.57.025,Spanish_step2,2020.2.3,Win32,60,,,,,,,,,,,,,,,,,right,0.480705,0,16,16,15,1,,,,,,,,,
,,,,,,,stim2/pa+15.wav,5f4bf4536b68b57e64ad4f2d,2021-02-24_17h54.57.025,Spanish_step2,2020.2.3,Win32,60,,,,,,,,,,,,,,,,,left,1.040685,1,0,17,2,1,,,,,,,,,
,,,,,,,stim2/pa-05.wav,5f4bf4536b68b57e64ad4f2d,2021-02-24_17h54.57.025,Spanish_step2,2020.2.3,Win32,60,,,,,,,,,,,,,,,,,left,0.91428,1,1,18,10,1,,,,,,,,,
,,,,,,,stim2/pa-30.wav,5f4bf4536b68b57e64ad4f2d,2021-02-24_17h54.57.025,Spanish_step2,2020.2.3,Win32,60,,,,,,,,,,,,,,,,,right,0.449775,1,2,19,15,1,,,,,,,,,
,,,,,,,stim2/pa+30.wav,5f4bf4536b68b57e64ad4f2d,2021-02-24_17h54.57.025,Spanish_step2,2020.2.3,Win32,60,,,,,,,,,,,,,,,,,right,0.420275,1,3,20,5,1,,,,,,,,,
,,,,,,,stim2/pa-20.wav,5f4bf4536b68b57e64ad4f2d,2021-02-24_17h54.57.025,Spanish_step2,2020.2.3,Win32,60,,,,,,,,,,,,,,,,,right,0.32336,1,4,21,13,1,,,,,,,,,
,,,,,,,stim2/pa+10.wav,5f4bf4536b68b57e64ad4f2d,2021-02-24_17h54.57.025,Spanish_step2,2020.2.3,Win32,60,,,,,,,,,,,,,,,,,right,0.28922,1,5,22,1,1,,,,,,,,,
,,,,,,,stim2/pa+05.wav,5f4bf4536b68b57e64ad4f2d,2021-02-24_17h54.57.025,Spanish_step2,2020.2.3,Win32,60,,,,,,,,,,,,,,,,,left,1.192825,1,6,23,0,1,,,,,,,,,
,,,,,,,stim2/pa+50.wav,5f4bf4536b68b57e64ad4f2d,2021-02-24_17h54.57.025,Spanish_step2,2020.2.3,Win32,60,,,,,,,,,,,,,,,,,left,0.56435,1,7,24,9,1,,,,,,,,,
,,,,,,,stim2/pa-10.wav,5f4bf4536b68b57e64ad4f2d,2021-02-24_17h54.57.025,Spanish_step2,2020.2.3,Win32,60,,,,,,,,,,,,,,,,,left,0.47264,1,8,25,11,1,,,,,,,,,
,,,,,,,stim2/pa+45.wav,5f4bf4536b68b57e64ad4f2d,2021-02-24_17h54.57.025,Spanish_step2,2020.2.3,Win32,60,,,,,,,,,,,,,,,,,right,1.119165,1,9,26,8,1,,,,,,,,,
,,,,,,,stim2/pa-25.wav,5f4bf4536b68b57e64ad4f2d,2021-02-24_17h54.57.025,Spanish_step2,2020.2.3,Win32,60,,,,,,,,,,,,,,,,,right,0.607195,1,10,27,14,1,,,,,,,,,
,,,,,,,stim2/pa-35.wav,5f4bf4536b68b57e64ad4f2d,2021-02-24_17h54.57.025,Spanish_step2,2020.2.3,Win32,60,,,,,,,,,,,,,,,,,right,0.42666,1,11,28,16,1,,,,,,,,,
,,,,,,,stim2/pa-15.wav,5f4bf4536b68b57e64ad4f2d,2021-02-24_17h54.57.025,Spanish_step2,2020.2.3,Win32,60,,,,,,,,,,,,,,,,,right,0.460305,1,12,29,12,1,,,,,,,,,
,,,,,,,stim2/pa+20.wav,5f4bf4536b68b57e64ad4f2d,2021-02-24_17h54.57.025,Spanish_step2,2020.2.3,Win32,60,,,,,,,,,,,,,,,,,left,0.50087,1,13,30,3,1,,,,,,,,,
,,,,,,,stim2/pa+25.wav,5f4bf4536b68b57e64ad4f2d,2021-02-24_17h54.57.025,Spanish_step2,2020.2.3,Win32,60,,,,,,,,,,,,,,,,,left,0.603405,1,14,31,4,1,,,,,,,,,
,,,,,,,stim2/pa+35.wav,5f4bf4536b68b57e64ad4f2d,2021-02-24_17h54.57.025,Spanish_step2,2020.2.3,Win32,60,,,,,,,,,,,,,,,,,left,0.558175,1,15,32,6,1,,,,,,,,,
,,,,,,,stim2/pa+40.wav,5f4bf4536b68b57e64ad4f2d,2021-02-24_17h54.57.025,Spanish_step2,2020.2.3,Win32,60,,,,,,,,,,,,,,,,,right,0.723215,1,16,33,7,1,,,,,,,,,
,,,,,,,stim2/pa+35.wav,5f4bf4536b68b57e64ad4f2d,2021-02-24_17h54.57.025,Spanish_step2,2020.2.3,Win32,60,,,,,,,,,,,,,,,,,right,0.896675,2,0,34,6,1,,,,,,,,,
,,,,,,,stim2/pa+10.wav,5f4bf4536b68b57e64ad4f2d,2021-02-24_17h54.57.025,Spanish_step2,2020.2.3,Win32,60,,,,,,,,,,,,,,,,,left,0.42444,2,1,35,1,1,,,,,,,,,
,,,,,,,stim2/pa-25.wav,5f4bf4536b68b57e64ad4f2d,2021-02-24_17h54.57.025,Spanish_step2,2020.2.3,Win32,60,,,,,,,,,,,,,,,,,right,0.70617,2,2,36,14,1,,,,,,,,,
,,,,,,,stim2/pa-20.wav,5f4bf4536b68b57e64ad4f2d,2021-02-24_17h54.57.025,Spanish_step2,2020.2.3,Win32,60,,,,,,,,,,,,,,,,,right,0.651035,2,3,37,13,1,,,,,,,,,
,,,,,,,stim2/pa+40.wav,5f4bf4536b68b57e64ad4f2d,2021-02-24_17h54.57.025,Spanish_step2,2020.2.3,Win32,60,,,,,,,,,,,,,,,,,right,0.834755,2,4,38,7,1,,,,,,,,,
,,,,,,,stim2/pa+15.wav,5f4bf4536b68b57e64ad4f2d,2021-02-24_17h54.57.025,Spanish_step2,2020.2.3,Win32,60,,,,,,,,,,,,,,,,,left,0.434805,2,5,39,2,1,,,,,,,,,
,,,,,,,stim2/pa+25.wav,5f4bf4536b68b57e64ad4f2d,2021-02-24_17h54.57.025,Spanish_step2,2020.2.3,Win32,60,,,,,,,,,,,,,,,,,left,0.5007,2,6,40,4,1,,,,,,,,,
,,,,,,,stim2/pa-30.wav,5f4bf4536b68b57e64ad4f2d,2021-02-24_17h54.57.025,Spanish_step2,2020.2.3,Win32,60,,,,,,,,,,,,,,,,,right,0.658405,2,7,41,15,1,,,,,,,,,
,,,,,,,stim2/pa+05.wav,5f4bf4536b68b57e64ad4f2d,2021-02-24_17h54.57.025,Spanish_step2,2020.2.3,Win32,60,,,,,,,,,,,,,,,,,left,0.5715,2,8,42,0,1,,,,,,,,,
,,,,,,,stim2/pa-10.wav,5f4bf4536b68b57e64ad4f2d,2021-02-24_17h54.57.025,Spanish_step2,2020.2.3,Win32,60,,,,,,,,,,,,,,,,,right,0.566775,2,9,43,11,1,,,,,,,,,
,,,,,,,stim2/pa-05.wav,5f4bf4536b68b57e64ad4f2d,2021-02-24_17h54.57.025,Spanish_step2,2020.2.3,Win32,60,,,,,,,,,,,,,,,,,right,1.18716,2,10,44,10,1,,,,,,,,,
,,,,,,,stim2/pa+50.wav,5f4bf4536b68b57e64ad4f2d,2021-02-24_17h54.57.025,Spanish_step2,2020.2.3,Win32,60,,,,,,,,,,,,,,,,,left,0.43904,2,11,45,9,1,,,,,,,,,
,,,,,,,stim2/pa+20.wav,5f4bf4536b68b57e64ad4f2d,2021-02-24_17h54.57.025,Spanish_step2,2020.2.3,Win32,60,,,,,,,,,,,,,,,,,left,0.569495,2,12,46,3,1,,,,,,,,,
,,,,,,,stim2/pa-35.wav,5f4bf4536b68b57e64ad4f2d,2021-02-24_17h54.57.025,Spanish_step2,2020.2.3,Win32,60,,,,,,,,,,,,,,,,,right,0.875985,2,13,47,16,1,,,,,,,,,
,,,,,,,stim2/pa+30.wav,5f4bf4536b68b57e64ad4f2d,2021-02-24_17h54.57.025,Spanish_step2,2020.2.3,Win32,60,,,,,,,,,,,,,,,,,right,0.867355,2,14,48,5,1,,,,,,,,,
,,,,,,,stim2/pa-15.wav,5f4bf4536b68b57e64ad4f2d,2021-02-24_17h54.57.025,Spanish_step2,2020.2.3,Win32,60,,,,,,,,,,,,,,,,,left,0.428355,2,15,49,12,1,,,,,,,,,
,,,,,,,stim2/pa+45.wav,5f4bf4536b68b57e64ad4f2d,2021-02-24_17h54.57.025,Spanish_step2,2020.2.3,Win32,60,,,,,,,,,,,,,,,,,left,0.710135,2,16,50,8,1,,,,,,,,,
,,,,,,,stim2/pa+05.wav,5f4bf4536b68b57e64ad4f2d,2021-02-24_17h54.57.025,Spanish_step2,2020.2.3,Win32,60,,,,,,,,,,,,,,,,,right,0.893085,,,,,,z,1.33148,0,0,0,0,1,,
,,,,,,,stim2/pa+10.wav,5f4bf4536b68b57e64ad4f2d,2021-02-24_17h54.57.025,Spanish_step2,2020.2.3,Win32,60,,,,,,,,,,,,,,,,,left,0.452575,,,,,,,,0,1,1,1,1,,
,,,,,,,stim2/pa+40.wav,5f4bf4536b68b57e64ad4f2d,2021-02-24_17h54.57.025,Spanish_step2,2020.2.3,Win32,60,,,,,,,,,,,,,,,,,right,0.63818,,,,,,,,0,2,2,7,1,,
,,,,,,,stim2/pa+25.wav,5f4bf4536b68b57e64ad4f2d,2021-02-24_17h54.57.025,Spanish_step2,2020.2.3,Win32,60,,,,,,,,,,,,,,,,,left,0.591025,,,,,,,,0,3,3,4,1,,
,,,,,,,stim2/pa-30.wav,5f4bf4536b68b57e64ad4f2d,2021-02-24_17h54.57.025,Spanish_step2,2020.2.3,Win32,60,,,,,,,,,,,,,,,,,right,0.62626,,,,,,,,0,4,4,15,1,,
,,,,,,,stim2/pa-15.wav,5f4bf4536b68b57e64ad4f2d,2021-02-24_17h54.57.025,Spanish_step2,2020.2.3,Win32,60,,,,,,,,,,,,,,,,,right,0.48381,,,,,,,,0,5,5,12,1,,
,,,,,,,stim2/pa+15.wav,5f4bf4536b68b57e64ad4f2d,2021-02-24_17h54.57.025,Spanish_step2,2020.2.3,Win32,60,,,,,,,,,,,,,,,,,left,0.53429,,,,,,,,0,6,6,2,1,,
,,,,,,,stim2/pa+20.wav,5f4bf4536b68b57e64ad4f2d,2021-02-24_17h54.57.025,Spanish_step2,2020.2.3,Win32,60,,,,,,,,,,,,,,,,,left,0.45079,,,,,,,,0,7,7,3,1,,
,,,,,,,stim2/pa+35.wav,5f4bf4536b68b57e64ad4f2d,2021-02-24_17h54.57.025,Spanish_step2,2020.2.3,Win32,60,,,,,,,,,,,,,,,,,left,0.401295,,,,,,,,0,8,8,6,1,,
,,,,,,,stim2/pa-25.wav,5f4bf4536b68b57e64ad4f2d,2021-02-24_17h54.57.025,Spanish_step2,2020.2.3,Win32,60,,,,,,,,,,,,,,,,,right,0.41203,,,,,,,,0,9,9,14,1,,
,,,,,,,stim2/pa+50.wav,5f4bf4536b68b57e64ad4f2d,2021-02-24_17h54.57.025,Spanish_step2,2020.2.3,Win32,60,,,,,,,,,,,,,,,,,right,0.43874,,,,,,,,0,10,10,9,1,,
,,,,,,,stim2/pa-05.wav,5f4bf4536b68b57e64ad4f2d,2021-02-24_17h54.57.025,Spanish_step2,2020.2.3,Win32,60,,,,,,,,,,,,,,,,,left,0.584015,,,,,,,,0,11,11,10,1,,
,,,,,,,stim2/pa+30.wav,5f4bf4536b68b57e64ad4f2d,2021-02-24_17h54.57.025,Spanish_step2,2020.2.3,Win32,60,,,,,,,,,,,,,,,,,left,1.50099,,,,,,,,0,12,12,5,1,,
,,,,,,,stim2/pa-10.wav,5f4bf4536b68b57e64ad4f2d,2021-02-24_17h54.57.025,Spanish_step2,2020.2.3,Win32,60,,,,,,,,,,,,,,,,,right,0.409875,,,,,,,,0,13,13,11,1,,
,,,,,,,stim2/pa+45.wav,5f4bf4536b68b57e64ad4f2d,2021-02-24_17h54.57.025,Spanish_step2,2020.2.3,Win32,60,,,,,,,,,,,,,,,,,left,1.035765,,,,,,,,0,14,14,8,1,,
,,,,,,,stim2/pa-20.wav,5f4bf4536b68b57e64ad4f2d,2021-02-24_17h54.57.025,Spanish_step2,2020.2.3,Win32,60,,,,,,,,,,,,,,,,,right,0.373845,,,,,,,,0,15,15,13,1,,
,,,,,,,stim2/pa-35.wav,5f4bf4536b68b57e64ad4f2d,2021-02-24_17h54.57.025,Spanish_step2,2020.2.3,Win32,60,,,,,,,,,,,,,,,,,right,0.361885,,,,,,,,0,16,16,16,1,,
,,,,,,,stim2/pa+20.wav,5f4bf4536b68b57e64ad4f2d,2021-02-24_17h54.57.025,Spanish_step2,2020.2.3,Win32,60,,,,,,,,,,,,,,,,,left,0.422345,,,,,,,,1,0,17,3,1,,
,,,,,,,stim2/pa+05.wav,5f4bf4536b68b57e64ad4f2d,2021-02-24_17h54.57.025,Spanish_step2,2020.2.3,Win32,60,,,,,,,,,,,,,,,,,left,0.376395,,,,,,,,1,1,18,0,1,,
,,,,,,,stim2/pa-20.wav,5f4bf4536b68b57e64ad4f2d,2021-02-24_17h54.57.025,Spanish_step2,2020.2.3,Win32,60,,,,,,,,,,,,,,,,,right,0.63652,,,,,,,,1,2,19,13,1,,
,,,,,,,stim2/pa-10.wav,5f4bf4536b68b57e64ad4f2d,2021-02-24_17h54.57.025,Spanish_step2,2020.2.3,Win32,60,,,,,,,,,,,,,,,,,right,0.439025,,,,,,,,1,3,20,11,1,,
,,,,,,,stim2/pa+10.wav,5f4bf4536b68b57e64ad4f2d,2021-02-24_17h54.57.025,Spanish_step2,2020.2.3,Win32,60,,,,,,,,,,,,,,,,,left,0.51102,,,,,,,,1,4,21,1,1,,
,,,,,,,stim2/pa-15.wav,5f4bf4536b68b57e64ad4f2d,2021-02-24_17h54.57.025,Spanish_step2,2020.2.3,Win32,60,,,,,,,,,,,,,,,,,right,0.687285,,,,,,,,1,5,22,12,1,,
,,,,,,,stim2/pa+15.wav,5f4bf4536b68b57e64ad4f2d,2021-02-24_17h54.57.025,Spanish_step2,2020.2.3,Win32,60,,,,,,,,,,,,,,,,,left,0.470105,,,,,,,,1,6,23,2,1,,
,,,,,,,stim2/pa-30.wav,5f4bf4536b68b57e64ad4f2d,2021-02-24_17h54.57.025,Spanish_step2,2020.2.3,Win32,60,,,,,,,,,,,,,,,,,right,0.404945,,,,,,,,1,7,24,15,1,,
,,,,,,,stim2/pa+45.wav,5f4bf4536b68b57e64ad4f2d,2021-02-24_17h54.57.025,Spanish_step2,2020.2.3,Win32,60,,,,,,,,,,,,,,,,,right,0.42371,,,,,,,,1,8,25,8,1,,
,,,,,,,stim2/pa+30.wav,5f4bf4536b68b57e64ad4f2d,2021-02-24_17h54.57.025,Spanish_step2,2020.2.3,Win32,60,,,,,,,,,,,,,,,,,right,0.36177,,,,,,,,1,9,26,5,1,,
,,,,,,,stim2/pa-25.wav,5f4bf4536b68b57e64ad4f2d,2021-02-24_17h54.57.025,Spanish_step2,2020.2.3,Win32,60,,,,,,,,,,,,,,,,,right,0.35974,,,,,,,,1,10,27,14,1,,
,,,,,,,stim2/pa-05.wav,5f4bf4536b68b57e64ad4f2d,2021-02-24_17h54.57.025,Spanish_step2,2020.2.3,Win32,60,,,,,,,,,,,,,,,,,left,0.60306,,,,,,,,1,11,28,10,1,,
,,,,,,,stim2/pa+50.wav,5f4bf4536b68b57e64ad4f2d,2021-02-24_17h54.57.025,Spanish_step2,2020.2.3,Win32,60,,,,,,,,,,,,,,,,,right,0.51748,,,,,,,,1,12,29,9,1,,
,,,,,,,stim2/pa+25.wav,5f4bf4536b68b57e64ad4f2d,2021-02-24_17h54.57.025,Spanish_step2,2020.2.3,Win32,60,,,,,,,,,,,,,,,,,left,1.73407,,,,,,,,1,13,30,4,1,,
,,,,,,,stim2/pa+40.wav,5f4bf4536b68b57e64ad4f2d,2021-02-24_17h54.57.025,Spanish_step2,2020.2.3,Win32,60,,,,,,,,,,,,,,,,,left,0.684185,,,,,,,,1,14,31,7,1,,
,,,,,,,stim2/pa-35.wav,5f4bf4536b68b57e64ad4f2d,2021-02-24_17h54.57.025,Spanish_step2,2020.2.3,Win32,60,,,,,,,,,,,,,,,,,right,0.44039,,,,,,,,1,15,32,16,1,,
,,,,,,,stim2/pa+35.wav,5f4bf4536b68b57e64ad4f2d,2021-02-24_17h54.57.025,Spanish_step2,2020.2.3,Win32,60,,,,,,,,,,,,,,,,,right,0.385395,,,,,,,,1,16,33,6,1,,
,,,,,,,,5f4bf4536b68b57e64ad4f2d,2021-02-24_17h54.57.025,Spanish_step2,2020.2.3,Win32,60,,,,,,,,,,,,,,,,,,,,,,,,,,,,,,,space,6.047305
