resp.keys,resp.rt,trials.thisRepN,trials.thisTrialN,trials.thisN,trials.thisIndex,trials.ran,stimuli,participant,date,expName,psychopyVersion,OS,frameRate,gotResponse.keys,gotResponse.rt,resp_2.keys,resp_2.rt,trials_2.thisRepN,trials_2.thisTrialN,trials_2.thisN,trials_2.thisIndex,trials_2.ran,key_resp_3.keys,key_resp_3.rt,trials_4.thisRepN,trials_4.thisTrialN,trials_4.thisN,trials_4.thisIndex,trials_4.ran,resp_3.keys,resp_3.rt,trials_3.thisRepN,trials_3.thisTrialN,trials_3.thisN,trials_3.thisIndex,trials_3.ran,key_resp_2.keys,key_resp_2.rt,trials_5.thisRepN,trials_5.thisTrialN,trials_5.thisN,trials_5.thisIndex,trials_5.ran,key_resp.keys,key_resp.rt
left,2.666,0,0,0,0,1,stim/VC_01.wav,5f7cada3fac3bc114cb6d6b8,2021-02-24_23h06.55.175,Spanish_step2,2020.2.3,Win32,60,,,,,,,,,,,,,,,,,,,,,,,,,,,,,,,,
right,1.101235,0,1,1,1,1,stim/VC_11.wav,5f7cada3fac3bc114cb6d6b8,2021-02-24_23h06.55.175,Spanish_step2,2020.2.3,Win32,60,,,,,,,,,,,,,,,,,,,,,,,,,,,,,,,,
,,,,,,,stim/VC_08.wav,5f7cada3fac3bc114cb6d6b8,2021-02-24_23h06.55.175,Spanish_step2,2020.2.3,Win32,60,space,2.056805,right,1.049575,0,0,0,7,1,,,,,,,,,,,,,,,,,,,,,,,
,,,,,,,stim/VC_05.wav,5f7cada3fac3bc114cb6d6b8,2021-02-24_23h06.55.175,Spanish_step2,2020.2.3,Win32,60,,,left,0.90391,0,1,1,4,1,,,,,,,,,,,,,,,,,,,,,,,
,,,,,,,stim/VC_09.wav,5f7cada3fac3bc114cb6d6b8,2021-02-24_23h06.55.175,Spanish_step2,2020.2.3,Win32,60,,,right,0.90971,0,2,2,8,1,,,,,,,,,,,,,,,,,,,,,,,
,,,,,,,stim/VC_11.wav,5f7cada3fac3bc114cb6d6b8,2021-02-24_23h06.55.175,Spanish_step2,2020.2.3,Win32,60,,,right,0.69945,0,3,3,10,1,,,,,,,,,,,,,,,,,,,,,,,
,,,,,,,stim/VC_03.wav,5f7cada3fac3bc114cb6d6b8,2021-02-24_23h06.55.175,Spanish_step2,2020.2.3,Win32,60,,,left,0.59199,0,4,4,2,1,,,,,,,,,,,,,,,,,,,,,,,
,,,,,,,stim/VC_06.wav,5f7cada3fac3bc114cb6d6b8,2021-02-24_23h06.55.175,Spanish_step2,2020.2.3,Win32,60,,,left,0.80839,0,5,5,5,1,,,,,,,,,,,,,,,,,,,,,,,
,,,,,,,stim/VC_07.wav,5f7cada3fac3bc114cb6d6b8,2021-02-24_23h06.55.175,Spanish_step2,2020.2.3,Win32,60,,,left,1.12011,0,6,6,6,1,,,,,,,,,,,,,,,,,,,,,,,
,,,,,,,stim/VC_02.wav,5f7cada3fac3bc114cb6d6b8,2021-02-24_23h06.55.175,Spanish_step2,2020.2.3,Win32,60,,,left,0.585585,0,7,7,1,1,,,,,,,,,,,,,,,,,,,,,,,
,,,,,,,stim/VC_10.wav,5f7cada3fac3bc114cb6d6b8,2021-02-24_23h06.55.175,Spanish_step2,2020.2.3,Win32,60,,,right,0.590425,0,8,8,9,1,,,,,,,,,,,,,,,,,,,,,,,
,,,,,,,stim/VC_01.wav,5f7cada3fac3bc114cb6d6b8,2021-02-24_23h06.55.175,Spanish_step2,2020.2.3,Win32,60,,,left,0.51949,0,9,9,0,1,,,,,,,,,,,,,,,,,,,,,,,
,,,,,,,stim/VC_04.wav,5f7cada3fac3bc114cb6d6b8,2021-02-24_23h06.55.175,Spanish_step2,2020.2.3,Win32,60,,,left,0.550225,0,10,10,3,1,,,,,,,,,,,,,,,,,,,,,,,
,,,,,,,stim/VC_03.wav,5f7cada3fac3bc114cb6d6b8,2021-02-24_23h06.55.175,Spanish_step2,2020.2.3,Win32,60,,,left,0.50805,1,0,11,2,1,,,,,,,,,,,,,,,,,,,,,,,
,,,,,,,stim/VC_02.wav,5f7cada3fac3bc114cb6d6b8,2021-02-24_23h06.55.175,Spanish_step2,2020.2.3,Win32,60,,,left,0.48762,1,1,12,1,1,,,,,,,,,,,,,,,,,,,,,,,
,,,,,,,stim/VC_11.wav,5f7cada3fac3bc114cb6d6b8,2021-02-24_23h06.55.175,Spanish_step2,2020.2.3,Win32,60,,,right,0.584915,1,2,13,10,1,,,,,,,,,,,,,,,,,,,,,,,
,,,,,,,stim/VC_10.wav,5f7cada3fac3bc114cb6d6b8,2021-02-24_23h06.55.175,Spanish_step2,2020.2.3,Win32,60,,,right,0.53343,1,3,14,9,1,,,,,,,,,,,,,,,,,,,,,,,
,,,,,,,stim/VC_08.wav,5f7cada3fac3bc114cb6d6b8,2021-02-24_23h06.55.175,Spanish_step2,2020.2.3,Win32,60,,,right,0.841245,1,4,15,7,1,,,,,,,,,,,,,,,,,,,,,,,
,,,,,,,stim/VC_01.wav,5f7cada3fac3bc114cb6d6b8,2021-02-24_23h06.55.175,Spanish_step2,2020.2.3,Win32,60,,,left,0.550805,1,5,16,0,1,,,,,,,,,,,,,,,,,,,,,,,
,,,,,,,stim/VC_07.wav,5f7cada3fac3bc114cb6d6b8,2021-02-24_23h06.55.175,Spanish_step2,2020.2.3,Win32,60,,,right,0.77093,1,6,17,6,1,,,,,,,,,,,,,,,,,,,,,,,
,,,,,,,stim/VC_09.wav,5f7cada3fac3bc114cb6d6b8,2021-02-24_23h06.55.175,Spanish_step2,2020.2.3,Win32,60,,,right,0.674485,1,7,18,8,1,,,,,,,,,,,,,,,,,,,,,,,
,,,,,,,stim/VC_04.wav,5f7cada3fac3bc114cb6d6b8,2021-02-24_23h06.55.175,Spanish_step2,2020.2.3,Win32,60,,,left,0.5011,1,8,19,3,1,,,,,,,,,,,,,,,,,,,,,,,
,,,,,,,stim/VC_06.wav,5f7cada3fac3bc114cb6d6b8,2021-02-24_23h06.55.175,Spanish_step2,2020.2.3,Win32,60,,,left,0.834805,1,9,20,5,1,,,,,,,,,,,,,,,,,,,,,,,
,,,,,,,stim/VC_05.wav,5f7cada3fac3bc114cb6d6b8,2021-02-24_23h06.55.175,Spanish_step2,2020.2.3,Win32,60,,,left,0.568455,1,10,21,4,1,,,,,,,,,,,,,,,,,,,,,,,
,,,,,,,stim/VC_06.wav,5f7cada3fac3bc114cb6d6b8,2021-02-24_23h06.55.175,Spanish_step2,2020.2.3,Win32,60,,,left,0.53396,2,0,22,5,1,,,,,,,,,,,,,,,,,,,,,,,
,,,,,,,stim/VC_05.wav,5f7cada3fac3bc114cb6d6b8,2021-02-24_23h06.55.175,Spanish_step2,2020.2.3,Win32,60,,,left,0.500505,2,1,23,4,1,,,,,,,,,,,,,,,,,,,,,,,
,,,,,,,stim/VC_09.wav,5f7cada3fac3bc114cb6d6b8,2021-02-24_23h06.55.175,Spanish_step2,2020.2.3,Win32,60,,,right,0.595875,2,2,24,8,1,,,,,,,,,,,,,,,,,,,,,,,
,,,,,,,stim/VC_01.wav,5f7cada3fac3bc114cb6d6b8,2021-02-24_23h06.55.175,Spanish_step2,2020.2.3,Win32,60,,,left,0.52226,2,3,25,0,1,,,,,,,,,,,,,,,,,,,,,,,
,,,,,,,stim/VC_10.wav,5f7cada3fac3bc114cb6d6b8,2021-02-24_23h06.55.175,Spanish_step2,2020.2.3,Win32,60,,,right,0.86912,2,4,26,9,1,,,,,,,,,,,,,,,,,,,,,,,
,,,,,,,stim/VC_08.wav,5f7cada3fac3bc114cb6d6b8,2021-02-24_23h06.55.175,Spanish_step2,2020.2.3,Win32,60,,,right,0.87618,2,5,27,7,1,,,,,,,,,,,,,,,,,,,,,,,
,,,,,,,stim/VC_02.wav,5f7cada3fac3bc114cb6d6b8,2021-02-24_23h06.55.175,Spanish_step2,2020.2.3,Win32,60,,,left,0.58314,2,6,28,1,1,,,,,,,,,,,,,,,,,,,,,,,
,,,,,,,stim/VC_11.wav,5f7cada3fac3bc114cb6d6b8,2021-02-24_23h06.55.175,Spanish_step2,2020.2.3,Win32,60,,,right,0.53762,2,7,29,10,1,,,,,,,,,,,,,,,,,,,,,,,
,,,,,,,stim/VC_07.wav,5f7cada3fac3bc114cb6d6b8,2021-02-24_23h06.55.175,Spanish_step2,2020.2.3,Win32,60,,,right,1.18708,2,8,30,6,1,,,,,,,,,,,,,,,,,,,,,,,
,,,,,,,stim/VC_03.wav,5f7cada3fac3bc114cb6d6b8,2021-02-24_23h06.55.175,Spanish_step2,2020.2.3,Win32,60,,,left,0.466005,2,9,31,2,1,,,,,,,,,,,,,,,,,,,,,,,
,,,,,,,stim/VC_04.wav,5f7cada3fac3bc114cb6d6b8,2021-02-24_23h06.55.175,Spanish_step2,2020.2.3,Win32,60,,,left,0.386465,2,10,32,3,1,,,,,,,,,,,,,,,,,,,,,,,
,,,,,,,stim/VC_06.wav,5f7cada3fac3bc114cb6d6b8,2021-02-24_23h06.55.175,Spanish_step2,2020.2.3,Win32,60,,,left,0.7702,,,,,,7,4.651275,0,0,0,5,1,,,,,,,,,,,,,,,,
,,,,,,,stim/VC_05.wav,5f7cada3fac3bc114cb6d6b8,2021-02-24_23h06.55.175,Spanish_step2,2020.2.3,Win32,60,,,left,0.5243,,,,,,,,0,1,1,4,1,,,,,,,,,,,,,,,,
,,,,,,,stim/VC_11.wav,5f7cada3fac3bc114cb6d6b8,2021-02-24_23h06.55.175,Spanish_step2,2020.2.3,Win32,60,,,right,0.578105,,,,,,,,0,2,2,10,1,,,,,,,,,,,,,,,,
,,,,,,,stim/VC_03.wav,5f7cada3fac3bc114cb6d6b8,2021-02-24_23h06.55.175,Spanish_step2,2020.2.3,Win32,60,,,left,0.56541,,,,,,,,0,3,3,2,1,,,,,,,,,,,,,,,,
,,,,,,,stim/VC_08.wav,5f7cada3fac3bc114cb6d6b8,2021-02-24_23h06.55.175,Spanish_step2,2020.2.3,Win32,60,,,right,1.034655,,,,,,,,0,4,4,7,1,,,,,,,,,,,,,,,,
,,,,,,,stim/VC_01.wav,5f7cada3fac3bc114cb6d6b8,2021-02-24_23h06.55.175,Spanish_step2,2020.2.3,Win32,60,,,left,0.437385,,,,,,,,0,5,5,0,1,,,,,,,,,,,,,,,,
,,,,,,,stim/VC_10.wav,5f7cada3fac3bc114cb6d6b8,2021-02-24_23h06.55.175,Spanish_step2,2020.2.3,Win32,60,,,right,0.60466,,,,,,,,0,6,6,9,1,,,,,,,,,,,,,,,,
,,,,,,,stim/VC_04.wav,5f7cada3fac3bc114cb6d6b8,2021-02-24_23h06.55.175,Spanish_step2,2020.2.3,Win32,60,,,left,0.57526,,,,,,,,0,7,7,3,1,,,,,,,,,,,,,,,,
,,,,,,,stim/VC_02.wav,5f7cada3fac3bc114cb6d6b8,2021-02-24_23h06.55.175,Spanish_step2,2020.2.3,Win32,60,,,left,0.489505,,,,,,,,0,8,8,1,1,,,,,,,,,,,,,,,,
,,,,,,,stim/VC_09.wav,5f7cada3fac3bc114cb6d6b8,2021-02-24_23h06.55.175,Spanish_step2,2020.2.3,Win32,60,,,right,0.50928,,,,,,,,0,9,9,8,1,,,,,,,,,,,,,,,,
,,,,,,,stim/VC_07.wav,5f7cada3fac3bc114cb6d6b8,2021-02-24_23h06.55.175,Spanish_step2,2020.2.3,Win32,60,,,right,0.794295,,,,,,,,0,10,10,6,1,,,,,,,,,,,,,,,,
,,,,,,,stim/VC_10.wav,5f7cada3fac3bc114cb6d6b8,2021-02-24_23h06.55.175,Spanish_step2,2020.2.3,Win32,60,,,right,0.55176,,,,,,,,1,0,11,9,1,,,,,,,,,,,,,,,,
,,,,,,,stim/VC_09.wav,5f7cada3fac3bc114cb6d6b8,2021-02-24_23h06.55.175,Spanish_step2,2020.2.3,Win32,60,,,right,0.500695,,,,,,,,1,1,12,8,1,,,,,,,,,,,,,,,,
,,,,,,,stim/VC_01.wav,5f7cada3fac3bc114cb6d6b8,2021-02-24_23h06.55.175,Spanish_step2,2020.2.3,Win32,60,,,left,0.521585,,,,,,,,1,2,13,0,1,,,,,,,,,,,,,,,,
,,,,,,,stim/VC_03.wav,5f7cada3fac3bc114cb6d6b8,2021-02-24_23h06.55.175,Spanish_step2,2020.2.3,Win32,60,,,left,0.424235,,,,,,,,1,3,14,2,1,,,,,,,,,,,,,,,,
,,,,,,,stim/VC_05.wav,5f7cada3fac3bc114cb6d6b8,2021-02-24_23h06.55.175,Spanish_step2,2020.2.3,Win32,60,,,left,0.50834,,,,,,,,1,4,15,4,1,,,,,,,,,,,,,,,,
,,,,,,,stim/VC_08.wav,5f7cada3fac3bc114cb6d6b8,2021-02-24_23h06.55.175,Spanish_step2,2020.2.3,Win32,60,,,right,0.810165,,,,,,,,1,5,16,7,1,,,,,,,,,,,,,,,,
,,,,,,,stim/VC_04.wav,5f7cada3fac3bc114cb6d6b8,2021-02-24_23h06.55.175,Spanish_step2,2020.2.3,Win32,60,,,left,0.438785,,,,,,,,1,6,17,3,1,,,,,,,,,,,,,,,,
,,,,,,,stim/VC_06.wav,5f7cada3fac3bc114cb6d6b8,2021-02-24_23h06.55.175,Spanish_step2,2020.2.3,Win32,60,,,left,0.736345,,,,,,,,1,7,18,5,1,,,,,,,,,,,,,,,,
,,,,,,,stim/VC_07.wav,5f7cada3fac3bc114cb6d6b8,2021-02-24_23h06.55.175,Spanish_step2,2020.2.3,Win32,60,,,left,0.583225,,,,,,,,1,8,19,6,1,,,,,,,,,,,,,,,,
,,,,,,,stim/VC_02.wav,5f7cada3fac3bc114cb6d6b8,2021-02-24_23h06.55.175,Spanish_step2,2020.2.3,Win32,60,,,left,0.60526,,,,,,,,1,9,20,1,1,,,,,,,,,,,,,,,,
,,,,,,,stim/VC_11.wav,5f7cada3fac3bc114cb6d6b8,2021-02-24_23h06.55.175,Spanish_step2,2020.2.3,Win32,60,,,right,0.53814,,,,,,,,1,10,21,10,1,,,,,,,,,,,,,,,,
,,,,,,,stim2/pa+25.wav,5f7cada3fac3bc114cb6d6b8,2021-02-24_23h06.55.175,Spanish_step2,2020.2.3,Win32,60,,,,,,,,,,,,,,,,,left,1.489375,0,0,0,4,1,,,,,,,,,
,,,,,,,stim2/pa-20.wav,5f7cada3fac3bc114cb6d6b8,2021-02-24_23h06.55.175,Spanish_step2,2020.2.3,Win32,60,,,,,,,,,,,,,,,,,right,0.817325,0,1,1,13,1,,,,,,,,,
,,,,,,,stim2/pa+05.wav,5f7cada3fac3bc114cb6d6b8,2021-02-24_23h06.55.175,Spanish_step2,2020.2.3,Win32,60,,,,,,,,,,,,,,,,,left,0.843,0,2,2,0,1,,,,,,,,,
,,,,,,,stim2/pa+45.wav,5f7cada3fac3bc114cb6d6b8,2021-02-24_23h06.55.175,Spanish_step2,2020.2.3,Win32,60,,,,,,,,,,,,,,,,,left,0.801475,0,3,3,8,1,,,,,,,,,
,,,,,,,stim2/pa+30.wav,5f7cada3fac3bc114cb6d6b8,2021-02-24_23h06.55.175,Spanish_step2,2020.2.3,Win32,60,,,,,,,,,,,,,,,,,left,0.58441,0,4,4,5,1,,,,,,,,,
,,,,,,,stim2/pa-35.wav,5f7cada3fac3bc114cb6d6b8,2021-02-24_23h06.55.175,Spanish_step2,2020.2.3,Win32,60,,,,,,,,,,,,,,,,,right,0.56578,0,5,5,16,1,,,,,,,,,
,,,,,,,stim2/pa-05.wav,5f7cada3fac3bc114cb6d6b8,2021-02-24_23h06.55.175,Spanish_step2,2020.2.3,Win32,60,,,,,,,,,,,,,,,,,right,0.540805,0,6,6,10,1,,,,,,,,,
,,,,,,,stim2/pa+50.wav,5f7cada3fac3bc114cb6d6b8,2021-02-24_23h06.55.175,Spanish_step2,2020.2.3,Win32,60,,,,,,,,,,,,,,,,,right,0.583115,0,7,7,9,1,,,,,,,,,
,,,,,,,stim2/pa+35.wav,5f7cada3fac3bc114cb6d6b8,2021-02-24_23h06.55.175,Spanish_step2,2020.2.3,Win32,60,,,,,,,,,,,,,,,,,right,0.655645,0,8,8,6,1,,,,,,,,,
,,,,,,,stim2/pa-15.wav,5f7cada3fac3bc114cb6d6b8,2021-02-24_23h06.55.175,Spanish_step2,2020.2.3,Win32,60,,,,,,,,,,,,,,,,,right,0.500635,0,9,9,12,1,,,,,,,,,
,,,,,,,stim2/pa-30.wav,5f7cada3fac3bc114cb6d6b8,2021-02-24_23h06.55.175,Spanish_step2,2020.2.3,Win32,60,,,,,,,,,,,,,,,,,right,0.61919,0,10,10,15,1,,,,,,,,,
,,,,,,,stim2/pa-25.wav,5f7cada3fac3bc114cb6d6b8,2021-02-24_23h06.55.175,Spanish_step2,2020.2.3,Win32,60,,,,,,,,,,,,,,,,,right,0.476045,0,11,11,14,1,,,,,,,,,
,,,,,,,stim2/pa+40.wav,5f7cada3fac3bc114cb6d6b8,2021-02-24_23h06.55.175,Spanish_step2,2020.2.3,Win32,60,,,,,,,,,,,,,,,,,right,0.55021,0,12,12,7,1,,,,,,,,,
,,,,,,,stim2/pa+20.wav,5f7cada3fac3bc114cb6d6b8,2021-02-24_23h06.55.175,Spanish_step2,2020.2.3,Win32,60,,,,,,,,,,,,,,,,,left,0.58514,0,13,13,3,1,,,,,,,,,
,,,,,,,stim2/pa-10.wav,5f7cada3fac3bc114cb6d6b8,2021-02-24_23h06.55.175,Spanish_step2,2020.2.3,Win32,60,,,,,,,,,,,,,,,,,right,0.71615,0,14,14,11,1,,,,,,,,,
,,,,,,,stim2/pa+15.wav,5f7cada3fac3bc114cb6d6b8,2021-02-24_23h06.55.175,Spanish_step2,2020.2.3,Win32,60,,,,,,,,,,,,,,,,,left,0.439645,0,15,15,2,1,,,,,,,,,
,,,,,,,stim2/pa+10.wav,5f7cada3fac3bc114cb6d6b8,2021-02-24_23h06.55.175,Spanish_step2,2020.2.3,Win32,60,,,,,,,,,,,,,,,,,left,0.477125,0,16,16,1,1,,,,,,,,,
,,,,,,,stim2/pa+40.wav,5f7cada3fac3bc114cb6d6b8,2021-02-24_23h06.55.175,Spanish_step2,2020.2.3,Win32,60,,,,,,,,,,,,,,,,,left,0.46173,1,0,17,7,1,,,,,,,,,
,,,,,,,stim2/pa+35.wav,5f7cada3fac3bc114cb6d6b8,2021-02-24_23h06.55.175,Spanish_step2,2020.2.3,Win32,60,,,,,,,,,,,,,,,,,left,0.40202,1,1,18,6,1,,,,,,,,,
,,,,,,,stim2/pa+15.wav,5f7cada3fac3bc114cb6d6b8,2021-02-24_23h06.55.175,Spanish_step2,2020.2.3,Win32,60,,,,,,,,,,,,,,,,,left,0.39023,1,2,19,2,1,,,,,,,,,
,,,,,,,stim2/pa+05.wav,5f7cada3fac3bc114cb6d6b8,2021-02-24_23h06.55.175,Spanish_step2,2020.2.3,Win32,60,,,,,,,,,,,,,,,,,left,0.3683,1,3,20,0,1,,,,,,,,,
,,,,,,,stim2/pa-25.wav,5f7cada3fac3bc114cb6d6b8,2021-02-24_23h06.55.175,Spanish_step2,2020.2.3,Win32,60,,,,,,,,,,,,,,,,,right,0.65869,1,4,21,14,1,,,,,,,,,
,,,,,,,stim2/pa-05.wav,5f7cada3fac3bc114cb6d6b8,2021-02-24_23h06.55.175,Spanish_step2,2020.2.3,Win32,60,,,,,,,,,,,,,,,,,right,0.55139,1,5,22,10,1,,,,,,,,,
,,,,,,,stim2/pa-20.wav,5f7cada3fac3bc114cb6d6b8,2021-02-24_23h06.55.175,Spanish_step2,2020.2.3,Win32,60,,,,,,,,,,,,,,,,,right,0.53215,1,6,23,13,1,,,,,,,,,
,,,,,,,stim2/pa-10.wav,5f7cada3fac3bc114cb6d6b8,2021-02-24_23h06.55.175,Spanish_step2,2020.2.3,Win32,60,,,,,,,,,,,,,,,,,right,0.450305,1,7,24,11,1,,,,,,,,,
,,,,,,,stim2/pa+30.wav,5f7cada3fac3bc114cb6d6b8,2021-02-24_23h06.55.175,Spanish_step2,2020.2.3,Win32,60,,,,,,,,,,,,,,,,,left,0.57736,1,8,25,5,1,,,,,,,,,
,,,,,,,stim2/pa-30.wav,5f7cada3fac3bc114cb6d6b8,2021-02-24_23h06.55.175,Spanish_step2,2020.2.3,Win32,60,,,,,,,,,,,,,,,,,right,0.502295,1,9,26,15,1,,,,,,,,,
,,,,,,,stim2/pa-15.wav,5f7cada3fac3bc114cb6d6b8,2021-02-24_23h06.55.175,Spanish_step2,2020.2.3,Win32,60,,,,,,,,,,,,,,,,,right,0.460885,1,10,27,12,1,,,,,,,,,
,,,,,,,stim2/pa+25.wav,5f7cada3fac3bc114cb6d6b8,2021-02-24_23h06.55.175,Spanish_step2,2020.2.3,Win32,60,,,,,,,,,,,,,,,,,left,1.034195,1,11,28,4,1,,,,,,,,,
,,,,,,,stim2/pa+20.wav,5f7cada3fac3bc114cb6d6b8,2021-02-24_23h06.55.175,Spanish_step2,2020.2.3,Win32,60,,,,,,,,,,,,,,,,,left,0.78772,1,12,29,3,1,,,,,,,,,
,,,,,,,stim2/pa-35.wav,5f7cada3fac3bc114cb6d6b8,2021-02-24_23h06.55.175,Spanish_step2,2020.2.3,Win32,60,,,,,,,,,,,,,,,,,right,0.74785,1,13,30,16,1,,,,,,,,,
,,,,,,,stim2/pa+10.wav,5f7cada3fac3bc114cb6d6b8,2021-02-24_23h06.55.175,Spanish_step2,2020.2.3,Win32,60,,,,,,,,,,,,,,,,,left,0.70111,1,14,31,1,1,,,,,,,,,
,,,,,,,stim2/pa+50.wav,5f7cada3fac3bc114cb6d6b8,2021-02-24_23h06.55.175,Spanish_step2,2020.2.3,Win32,60,,,,,,,,,,,,,,,,,left,0.817225,1,15,32,9,1,,,,,,,,,
,,,,,,,stim2/pa+45.wav,5f7cada3fac3bc114cb6d6b8,2021-02-24_23h06.55.175,Spanish_step2,2020.2.3,Win32,60,,,,,,,,,,,,,,,,,left,0.549975,1,16,33,8,1,,,,,,,,,
,,,,,,,stim2/pa+30.wav,5f7cada3fac3bc114cb6d6b8,2021-02-24_23h06.55.175,Spanish_step2,2020.2.3,Win32,60,,,,,,,,,,,,,,,,,left,0.42837,2,0,34,5,1,,,,,,,,,
,,,,,,,stim2/pa+35.wav,5f7cada3fac3bc114cb6d6b8,2021-02-24_23h06.55.175,Spanish_step2,2020.2.3,Win32,60,,,,,,,,,,,,,,,,,left,0.433585,2,1,35,6,1,,,,,,,,,
,,,,,,,stim2/pa+10.wav,5f7cada3fac3bc114cb6d6b8,2021-02-24_23h06.55.175,Spanish_step2,2020.2.3,Win32,60,,,,,,,,,,,,,,,,,left,0.449935,2,2,36,1,1,,,,,,,,,
,,,,,,,stim2/pa+50.wav,5f7cada3fac3bc114cb6d6b8,2021-02-24_23h06.55.175,Spanish_step2,2020.2.3,Win32,60,,,,,,,,,,,,,,,,,left,0.550005,2,3,37,9,1,,,,,,,,,
,,,,,,,stim2/pa-15.wav,5f7cada3fac3bc114cb6d6b8,2021-02-24_23h06.55.175,Spanish_step2,2020.2.3,Win32,60,,,,,,,,,,,,,,,,,right,0.50006,2,4,38,12,1,,,,,,,,,
,,,,,,,stim2/pa+05.wav,5f7cada3fac3bc114cb6d6b8,2021-02-24_23h06.55.175,Spanish_step2,2020.2.3,Win32,60,,,,,,,,,,,,,,,,,left,0.71311,2,5,39,0,1,,,,,,,,,
,,,,,,,stim2/pa-05.wav,5f7cada3fac3bc114cb6d6b8,2021-02-24_23h06.55.175,Spanish_step2,2020.2.3,Win32,60,,,,,,,,,,,,,,,,,left,0.772525,2,6,40,10,1,,,,,,,,,
,,,,,,,stim2/pa-25.wav,5f7cada3fac3bc114cb6d6b8,2021-02-24_23h06.55.175,Spanish_step2,2020.2.3,Win32,60,,,,,,,,,,,,,,,,,right,0.65108,2,7,41,14,1,,,,,,,,,
,,,,,,,stim2/pa+15.wav,5f7cada3fac3bc114cb6d6b8,2021-02-24_23h06.55.175,Spanish_step2,2020.2.3,Win32,60,,,,,,,,,,,,,,,,,left,0.883735,2,8,42,2,1,,,,,,,,,
,,,,,,,stim2/pa-10.wav,5f7cada3fac3bc114cb6d6b8,2021-02-24_23h06.55.175,Spanish_step2,2020.2.3,Win32,60,,,,,,,,,,,,,,,,,right,0.45073,2,9,43,11,1,,,,,,,,,
,,,,,,,stim2/pa+45.wav,5f7cada3fac3bc114cb6d6b8,2021-02-24_23h06.55.175,Spanish_step2,2020.2.3,Win32,60,,,,,,,,,,,,,,,,,right,0.51744,2,10,44,8,1,,,,,,,,,
,,,,,,,stim2/pa-35.wav,5f7cada3fac3bc114cb6d6b8,2021-02-24_23h06.55.175,Spanish_step2,2020.2.3,Win32,60,,,,,,,,,,,,,,,,,right,0.452475,2,11,45,16,1,,,,,,,,,
,,,,,,,stim2/pa+40.wav,5f7cada3fac3bc114cb6d6b8,2021-02-24_23h06.55.175,Spanish_step2,2020.2.3,Win32,60,,,,,,,,,,,,,,,,,right,0.383695,2,12,46,7,1,,,,,,,,,
,,,,,,,stim2/pa+20.wav,5f7cada3fac3bc114cb6d6b8,2021-02-24_23h06.55.175,Spanish_step2,2020.2.3,Win32,60,,,,,,,,,,,,,,,,,left,1.10163,2,13,47,3,1,,,,,,,,,
,,,,,,,stim2/pa-20.wav,5f7cada3fac3bc114cb6d6b8,2021-02-24_23h06.55.175,Spanish_step2,2020.2.3,Win32,60,,,,,,,,,,,,,,,,,right,0.534525,2,14,48,13,1,,,,,,,,,
,,,,,,,stim2/pa-30.wav,5f7cada3fac3bc114cb6d6b8,2021-02-24_23h06.55.175,Spanish_step2,2020.2.3,Win32,60,,,,,,,,,,,,,,,,,right,0.46215,2,15,49,15,1,,,,,,,,,
,,,,,,,stim2/pa+25.wav,5f7cada3fac3bc114cb6d6b8,2021-02-24_23h06.55.175,Spanish_step2,2020.2.3,Win32,60,,,,,,,,,,,,,,,,,right,0.44157,2,16,50,4,1,,,,,,,,,
,,,,,,,stim2/pa+05.wav,5f7cada3fac3bc114cb6d6b8,2021-02-24_23h06.55.175,Spanish_step2,2020.2.3,Win32,60,,,,,,,,,,,,,,,,,left,1.167325,,,,,,z,3.63522,0,0,0,0,1,,
,,,,,,,stim2/pa-30.wav,5f7cada3fac3bc114cb6d6b8,2021-02-24_23h06.55.175,Spanish_step2,2020.2.3,Win32,60,,,,,,,,,,,,,,,,,right,0.65249,,,,,,,,0,1,1,15,1,,
,,,,,,,stim2/pa-10.wav,5f7cada3fac3bc114cb6d6b8,2021-02-24_23h06.55.175,Spanish_step2,2020.2.3,Win32,60,,,,,,,,,,,,,,,,,right,0.45612,,,,,,,,0,2,2,11,1,,
,,,,,,,stim2/pa-25.wav,5f7cada3fac3bc114cb6d6b8,2021-02-24_23h06.55.175,Spanish_step2,2020.2.3,Win32,60,,,,,,,,,,,,,,,,,right,0.35589,,,,,,,,0,3,3,14,1,,
,,,,,,,stim2/pa+25.wav,5f7cada3fac3bc114cb6d6b8,2021-02-24_23h06.55.175,Spanish_step2,2020.2.3,Win32,60,,,,,,,,,,,,,,,,,right,0.550505,,,,,,,,0,4,4,4,1,,
,,,,,,,stim2/pa+50.wav,5f7cada3fac3bc114cb6d6b8,2021-02-24_23h06.55.175,Spanish_step2,2020.2.3,Win32,60,,,,,,,,,,,,,,,,,right,0.48692,,,,,,,,0,5,5,9,1,,
,,,,,,,stim2/pa-20.wav,5f7cada3fac3bc114cb6d6b8,2021-02-24_23h06.55.175,Spanish_step2,2020.2.3,Win32,60,,,,,,,,,,,,,,,,,right,0.493885,,,,,,,,0,6,6,13,1,,
,,,,,,,stim2/pa-35.wav,5f7cada3fac3bc114cb6d6b8,2021-02-24_23h06.55.175,Spanish_step2,2020.2.3,Win32,60,,,,,,,,,,,,,,,,,right,0.46268,,,,,,,,0,7,7,16,1,,
,,,,,,,stim2/pa+20.wav,5f7cada3fac3bc114cb6d6b8,2021-02-24_23h06.55.175,Spanish_step2,2020.2.3,Win32,60,,,,,,,,,,,,,,,,,right,0.5218,,,,,,,,0,8,8,3,1,,
,,,,,,,stim2/pa-15.wav,5f7cada3fac3bc114cb6d6b8,2021-02-24_23h06.55.175,Spanish_step2,2020.2.3,Win32,60,,,,,,,,,,,,,,,,,right,0.46713,,,,,,,,0,9,9,12,1,,
,,,,,,,stim2/pa-05.wav,5f7cada3fac3bc114cb6d6b8,2021-02-24_23h06.55.175,Spanish_step2,2020.2.3,Win32,60,,,,,,,,,,,,,,,,,right,0.484575,,,,,,,,0,10,10,10,1,,
,,,,,,,stim2/pa+35.wav,5f7cada3fac3bc114cb6d6b8,2021-02-24_23h06.55.175,Spanish_step2,2020.2.3,Win32,60,,,,,,,,,,,,,,,,,right,0.467855,,,,,,,,0,11,11,6,1,,
,,,,,,,stim2/pa+15.wav,5f7cada3fac3bc114cb6d6b8,2021-02-24_23h06.55.175,Spanish_step2,2020.2.3,Win32,60,,,,,,,,,,,,,,,,,left,1.003825,,,,,,,,0,12,12,2,1,,
,,,,,,,stim2/pa+10.wav,5f7cada3fac3bc114cb6d6b8,2021-02-24_23h06.55.175,Spanish_step2,2020.2.3,Win32,60,,,,,,,,,,,,,,,,,left,0.51906,,,,,,,,0,13,13,1,1,,
,,,,,,,stim2/pa+40.wav,5f7cada3fac3bc114cb6d6b8,2021-02-24_23h06.55.175,Spanish_step2,2020.2.3,Win32,60,,,,,,,,,,,,,,,,,left,0.40176,,,,,,,,0,14,14,7,1,,
,,,,,,,stim2/pa+30.wav,5f7cada3fac3bc114cb6d6b8,2021-02-24_23h06.55.175,Spanish_step2,2020.2.3,Win32,60,,,,,,,,,,,,,,,,,left,0.435155,,,,,,,,0,15,15,5,1,,
,,,,,,,stim2/pa+45.wav,5f7cada3fac3bc114cb6d6b8,2021-02-24_23h06.55.175,Spanish_step2,2020.2.3,Win32,60,,,,,,,,,,,,,,,,,left,0.51878,,,,,,,,0,16,16,8,1,,
,,,,,,,stim2/pa+30.wav,5f7cada3fac3bc114cb6d6b8,2021-02-24_23h06.55.175,Spanish_step2,2020.2.3,Win32,60,,,,,,,,,,,,,,,,,left,0.391185,,,,,,,,1,0,17,5,1,,
,,,,,,,stim2/pa-20.wav,5f7cada3fac3bc114cb6d6b8,2021-02-24_23h06.55.175,Spanish_step2,2020.2.3,Win32,60,,,,,,,,,,,,,,,,,right,0.592215,,,,,,,,1,1,18,13,1,,
,,,,,,,stim2/pa+10.wav,5f7cada3fac3bc114cb6d6b8,2021-02-24_23h06.55.175,Spanish_step2,2020.2.3,Win32,60,,,,,,,,,,,,,,,,,left,0.5494,,,,,,,,1,2,19,1,1,,
,,,,,,,stim2/pa+20.wav,5f7cada3fac3bc114cb6d6b8,2021-02-24_23h06.55.175,Spanish_step2,2020.2.3,Win32,60,,,,,,,,,,,,,,,,,left,0.51773,,,,,,,,1,3,20,3,1,,
,,,,,,,stim2/pa-10.wav,5f7cada3fac3bc114cb6d6b8,2021-02-24_23h06.55.175,Spanish_step2,2020.2.3,Win32,60,,,,,,,,,,,,,,,,,left,0.45097,,,,,,,,1,4,21,11,1,,
,,,,,,,stim2/pa+15.wav,5f7cada3fac3bc114cb6d6b8,2021-02-24_23h06.55.175,Spanish_step2,2020.2.3,Win32,60,,,,,,,,,,,,,,,,,left,0.532765,,,,,,,,1,5,22,2,1,,
,,,,,,,stim2/pa+25.wav,5f7cada3fac3bc114cb6d6b8,2021-02-24_23h06.55.175,Spanish_step2,2020.2.3,Win32,60,,,,,,,,,,,,,,,,,left,0.41985,,,,,,,,1,6,23,4,1,,
,,,,,,,stim2/pa+05.wav,5f7cada3fac3bc114cb6d6b8,2021-02-24_23h06.55.175,Spanish_step2,2020.2.3,Win32,60,,,,,,,,,,,,,,,,,left,0.715635,,,,,,,,1,7,24,0,1,,
,,,,,,,stim2/pa+45.wav,5f7cada3fac3bc114cb6d6b8,2021-02-24_23h06.55.175,Spanish_step2,2020.2.3,Win32,60,,,,,,,,,,,,,,,,,left,0.567865,,,,,,,,1,8,25,8,1,,
,,,,,,,stim2/pa-30.wav,5f7cada3fac3bc114cb6d6b8,2021-02-24_23h06.55.175,Spanish_step2,2020.2.3,Win32,60,,,,,,,,,,,,,,,,,right,0.501075,,,,,,,,1,9,26,15,1,,
,,,,,,,stim2/pa-05.wav,5f7cada3fac3bc114cb6d6b8,2021-02-24_23h06.55.175,Spanish_step2,2020.2.3,Win32,60,,,,,,,,,,,,,,,,,right,0.42174,,,,,,,,1,10,27,10,1,,
,,,,,,,stim2/pa+35.wav,5f7cada3fac3bc114cb6d6b8,2021-02-24_23h06.55.175,Spanish_step2,2020.2.3,Win32,60,,,,,,,,,,,,,,,,,left,0.85209,,,,,,,,1,11,28,6,1,,
,,,,,,,stim2/pa+40.wav,5f7cada3fac3bc114cb6d6b8,2021-02-24_23h06.55.175,Spanish_step2,2020.2.3,Win32,60,,,,,,,,,,,,,,,,,left,0.68366,,,,,,,,1,12,29,7,1,,
,,,,,,,stim2/pa-15.wav,5f7cada3fac3bc114cb6d6b8,2021-02-24_23h06.55.175,Spanish_step2,2020.2.3,Win32,60,,,,,,,,,,,,,,,,,right,0.559355,,,,,,,,1,13,30,12,1,,
,,,,,,,stim2/pa+50.wav,5f7cada3fac3bc114cb6d6b8,2021-02-24_23h06.55.175,Spanish_step2,2020.2.3,Win32,60,,,,,,,,,,,,,,,,,right,0.468015,,,,,,,,1,14,31,9,1,,
,,,,,,,stim2/pa-25.wav,5f7cada3fac3bc114cb6d6b8,2021-02-24_23h06.55.175,Spanish_step2,2020.2.3,Win32,60,,,,,,,,,,,,,,,,,right,0.421215,,,,,,,,1,15,32,14,1,,
,,,,,,,stim2/pa-35.wav,5f7cada3fac3bc114cb6d6b8,2021-02-24_23h06.55.175,Spanish_step2,2020.2.3,Win32,60,,,,,,,,,,,,,,,,,right,0.38528,,,,,,,,1,16,33,16,1,,
,,,,,,,,5f7cada3fac3bc114cb6d6b8,2021-02-24_23h06.55.175,Spanish_step2,2020.2.3,Win32,60,,,,,,,,,,,,,,,,,,,,,,,,,,,,,,,space,7.401485
