resp.keys,resp.rt,trials.thisRepN,trials.thisTrialN,trials.thisN,trials.thisIndex,trials.ran,stimuli,participant,date,expName,psychopyVersion,OS,frameRate,gotResponse.keys,gotResponse.rt,resp_2.keys,resp_2.rt,trials_2.thisRepN,trials_2.thisTrialN,trials_2.thisN,trials_2.thisIndex,trials_2.ran,key_resp_3.keys,key_resp_3.corr,key_resp_3.rt,trials_4.thisRepN,trials_4.thisTrialN,trials_4.thisN,trials_4.thisIndex,trials_4.ran,resp_3.keys,resp_3.rt,trials_3.thisRepN,trials_3.thisTrialN,trials_3.thisN,trials_3.thisIndex,trials_3.ran,key_resp_2.keys,key_resp_2.rt,trials_5.thisRepN,trials_5.thisTrialN,trials_5.thisN,trials_5.thisIndex,trials_5.ran,key_resp.keys,key_resp.rt
left,6.712885,0,0,0,1,1,stim/VC_11.wav,5d97bf1cfaa2860015b165a6,2021-01-19_22h03.29.043,English_step1,2020.2.3,Win32,60,,,,,,,,,,,,,,,,,,,,,,,,,,,,,,,,,
left,1.74994,0,1,1,0,1,stim/VC_01.wav,5d97bf1cfaa2860015b165a6,2021-01-19_22h03.29.043,English_step1,2020.2.3,Win32,60,,,,,,,,,,,,,,,,,,,,,,,,,,,,,,,,,
,,,,,,,stim/VC_04.wav,5d97bf1cfaa2860015b165a6,2021-01-19_22h03.29.043,English_step1,2020.2.3,Win32,60,space,3.345975,left,12.23659,0,0,0,3,1,,,,,,,,,,,,,,,,,,,,,,,,
,,,,,,,stim/VC_09.wav,5d97bf1cfaa2860015b165a6,2021-01-19_22h03.29.043,English_step1,2020.2.3,Win32,60,,,right,2.24565,0,1,1,8,1,,,,,,,,,,,,,,,,,,,,,,,,
,,,,,,,stim/VC_08.wav,5d97bf1cfaa2860015b165a6,2021-01-19_22h03.29.043,English_step1,2020.2.3,Win32,60,,,right,1.22825,0,2,2,7,1,,,,,,,,,,,,,,,,,,,,,,,,
,,,,,,,stim/VC_03.wav,5d97bf1cfaa2860015b165a6,2021-01-19_22h03.29.043,English_step1,2020.2.3,Win32,60,,,left,0.99426,0,3,3,2,1,,,,,,,,,,,,,,,,,,,,,,,,
,,,,,,,stim/VC_11.wav,5d97bf1cfaa2860015b165a6,2021-01-19_22h03.29.043,English_step1,2020.2.3,Win32,60,,,right,1.000105,0,4,4,10,1,,,,,,,,,,,,,,,,,,,,,,,,
,,,,,,,stim/VC_07.wav,5d97bf1cfaa2860015b165a6,2021-01-19_22h03.29.043,English_step1,2020.2.3,Win32,60,,,right,0.83356,0,5,5,6,1,,,,,,,,,,,,,,,,,,,,,,,,
,,,,,,,stim/VC_02.wav,5d97bf1cfaa2860015b165a6,2021-01-19_22h03.29.043,English_step1,2020.2.3,Win32,60,,,left,0.71977,0,6,6,1,1,,,,,,,,,,,,,,,,,,,,,,,,
,,,,,,,stim/VC_01.wav,5d97bf1cfaa2860015b165a6,2021-01-19_22h03.29.043,English_step1,2020.2.3,Win32,60,,,left,0.716305,0,7,7,0,1,,,,,,,,,,,,,,,,,,,,,,,,
,,,,,,,stim/VC_05.wav,5d97bf1cfaa2860015b165a6,2021-01-19_22h03.29.043,English_step1,2020.2.3,Win32,60,,,right,0.85049,0,8,8,4,1,,,,,,,,,,,,,,,,,,,,,,,,
,,,,,,,stim/VC_10.wav,5d97bf1cfaa2860015b165a6,2021-01-19_22h03.29.043,English_step1,2020.2.3,Win32,60,,,right,0.755555,0,9,9,9,1,,,,,,,,,,,,,,,,,,,,,,,,
,,,,,,,stim/VC_06.wav,5d97bf1cfaa2860015b165a6,2021-01-19_22h03.29.043,English_step1,2020.2.3,Win32,60,,,left,0.75043,0,10,10,5,1,,,,,,,,,,,,,,,,,,,,,,,,
,,,,,,,stim/VC_08.wav,5d97bf1cfaa2860015b165a6,2021-01-19_22h03.29.043,English_step1,2020.2.3,Win32,60,,,left,0.73345,1,0,11,7,1,,,,,,,,,,,,,,,,,,,,,,,,
,,,,,,,stim/VC_11.wav,5d97bf1cfaa2860015b165a6,2021-01-19_22h03.29.043,English_step1,2020.2.3,Win32,60,,,left,0.716035,1,1,12,10,1,,,,,,,,,,,,,,,,,,,,,,,,
,,,,,,,stim/VC_10.wav,5d97bf1cfaa2860015b165a6,2021-01-19_22h03.29.043,English_step1,2020.2.3,Win32,60,,,left,0.716895,1,2,13,9,1,,,,,,,,,,,,,,,,,,,,,,,,
,,,,,,,stim/VC_05.wav,5d97bf1cfaa2860015b165a6,2021-01-19_22h03.29.043,English_step1,2020.2.3,Win32,60,,,right,1.48977,1,3,14,4,1,,,,,,,,,,,,,,,,,,,,,,,,
,,,,,,,stim/VC_09.wav,5d97bf1cfaa2860015b165a6,2021-01-19_22h03.29.043,English_step1,2020.2.3,Win32,60,,,right,1.16908,1,4,15,8,1,,,,,,,,,,,,,,,,,,,,,,,,
,,,,,,,stim/VC_07.wav,5d97bf1cfaa2860015b165a6,2021-01-19_22h03.29.043,English_step1,2020.2.3,Win32,60,,,left,1.31681,1,5,16,6,1,,,,,,,,,,,,,,,,,,,,,,,,
,,,,,,,stim/VC_04.wav,5d97bf1cfaa2860015b165a6,2021-01-19_22h03.29.043,English_step1,2020.2.3,Win32,60,,,right,2.354745,1,6,17,3,1,,,,,,,,,,,,,,,,,,,,,,,,
,,,,,,,stim/VC_06.wav,5d97bf1cfaa2860015b165a6,2021-01-19_22h03.29.043,English_step1,2020.2.3,Win32,60,,,left,1.43477,1,7,18,5,1,,,,,,,,,,,,,,,,,,,,,,,,
,,,,,,,stim/VC_01.wav,5d97bf1cfaa2860015b165a6,2021-01-19_22h03.29.043,English_step1,2020.2.3,Win32,60,,,left,0.90657,1,8,19,0,1,,,,,,,,,,,,,,,,,,,,,,,,
,,,,,,,stim/VC_03.wav,5d97bf1cfaa2860015b165a6,2021-01-19_22h03.29.043,English_step1,2020.2.3,Win32,60,,,left,0.84486,1,9,20,2,1,,,,,,,,,,,,,,,,,,,,,,,,
,,,,,,,stim/VC_02.wav,5d97bf1cfaa2860015b165a6,2021-01-19_22h03.29.043,English_step1,2020.2.3,Win32,60,,,left,0.662955,1,10,21,1,1,,,,,,,,,,,,,,,,,,,,,,,,
,,,,,,,stim/VC_06.wav,5d97bf1cfaa2860015b165a6,2021-01-19_22h03.29.043,English_step1,2020.2.3,Win32,60,,,right,1.08826,2,0,22,5,1,,,,,,,,,,,,,,,,,,,,,,,,
,,,,,,,stim/VC_07.wav,5d97bf1cfaa2860015b165a6,2021-01-19_22h03.29.043,English_step1,2020.2.3,Win32,60,,,right,2.02995,2,1,23,6,1,,,,,,,,,,,,,,,,,,,,,,,,
,,,,,,,stim/VC_01.wav,5d97bf1cfaa2860015b165a6,2021-01-19_22h03.29.043,English_step1,2020.2.3,Win32,60,,,left,0.75065,2,2,24,0,1,,,,,,,,,,,,,,,,,,,,,,,,
,,,,,,,stim/VC_11.wav,5d97bf1cfaa2860015b165a6,2021-01-19_22h03.29.043,English_step1,2020.2.3,Win32,60,,,left,0.786875,2,3,25,10,1,,,,,,,,,,,,,,,,,,,,,,,,
,,,,,,,stim/VC_04.wav,5d97bf1cfaa2860015b165a6,2021-01-19_22h03.29.043,English_step1,2020.2.3,Win32,60,,,left,0.68482,2,4,26,3,1,,,,,,,,,,,,,,,,,,,,,,,,
,,,,,,,stim/VC_05.wav,5d97bf1cfaa2860015b165a6,2021-01-19_22h03.29.043,English_step1,2020.2.3,Win32,60,,,left,0.75335,2,5,27,4,1,,,,,,,,,,,,,,,,,,,,,,,,
,,,,,,,stim/VC_03.wav,5d97bf1cfaa2860015b165a6,2021-01-19_22h03.29.043,English_step1,2020.2.3,Win32,60,,,left,1.25547,2,6,28,2,1,,,,,,,,,,,,,,,,,,,,,,,,
,,,,,,,stim/VC_10.wav,5d97bf1cfaa2860015b165a6,2021-01-19_22h03.29.043,English_step1,2020.2.3,Win32,60,,,right,0.75912,2,7,29,9,1,,,,,,,,,,,,,,,,,,,,,,,,
,,,,,,,stim/VC_08.wav,5d97bf1cfaa2860015b165a6,2021-01-19_22h03.29.043,English_step1,2020.2.3,Win32,60,,,right,0.977135,2,8,30,7,1,,,,,,,,,,,,,,,,,,,,,,,,
,,,,,,,stim/VC_02.wav,5d97bf1cfaa2860015b165a6,2021-01-19_22h03.29.043,English_step1,2020.2.3,Win32,60,,,left,0.640635,2,9,31,1,1,,,,,,,,,,,,,,,,,,,,,,,,
,,,,,,,stim/VC_09.wav,5d97bf1cfaa2860015b165a6,2021-01-19_22h03.29.043,English_step1,2020.2.3,Win32,60,,,right,0.642815,2,10,32,8,1,,,,,,,,,,,,,,,,,,,,,,,,
,,,,,,,stim/VC_05.wav,5d97bf1cfaa2860015b165a6,2021-01-19_22h03.29.043,English_step1,2020.2.3,Win32,60,,,right,1.11295,,,,,,4,0,6.29653,0,0,0,4,1,,,,,,,,,,,,,,,,
,,,,,,,stim/VC_09.wav,5d97bf1cfaa2860015b165a6,2021-01-19_22h03.29.043,English_step1,2020.2.3,Win32,60,,,right,0.933195,,,,,,,,,0,1,1,8,1,,,,,,,,,,,,,,,,
,,,,,,,stim/VC_10.wav,5d97bf1cfaa2860015b165a6,2021-01-19_22h03.29.043,English_step1,2020.2.3,Win32,60,,,right,0.99983,,,,,,,,,0,2,2,9,1,,,,,,,,,,,,,,,,
,,,,,,,stim/VC_04.wav,5d97bf1cfaa2860015b165a6,2021-01-19_22h03.29.043,English_step1,2020.2.3,Win32,60,,,left,0.7378,,,,,,,,,0,3,3,3,1,,,,,,,,,,,,,,,,
,,,,,,,stim/VC_02.wav,5d97bf1cfaa2860015b165a6,2021-01-19_22h03.29.043,English_step1,2020.2.3,Win32,60,,,left,0.620955,,,,,,,,,0,4,4,1,1,,,,,,,,,,,,,,,,
,,,,,,,stim/VC_01.wav,5d97bf1cfaa2860015b165a6,2021-01-19_22h03.29.043,English_step1,2020.2.3,Win32,60,,,left,0.7579,,,,,,,,,0,5,5,0,1,,,,,,,,,,,,,,,,
,,,,,,,stim/VC_06.wav,5d97bf1cfaa2860015b165a6,2021-01-19_22h03.29.043,English_step1,2020.2.3,Win32,60,,,right,0.68447,,,,,,,,,0,6,6,5,1,,,,,,,,,,,,,,,,
,,,,,,,stim/VC_11.wav,5d97bf1cfaa2860015b165a6,2021-01-19_22h03.29.043,English_step1,2020.2.3,Win32,60,,,right,0.654235,,,,,,,,,0,7,7,10,1,,,,,,,,,,,,,,,,
,,,,,,,stim/VC_03.wav,5d97bf1cfaa2860015b165a6,2021-01-19_22h03.29.043,English_step1,2020.2.3,Win32,60,,,left,0.566565,,,,,,,,,0,8,8,2,1,,,,,,,,,,,,,,,,
,,,,,,,stim/VC_07.wav,5d97bf1cfaa2860015b165a6,2021-01-19_22h03.29.043,English_step1,2020.2.3,Win32,60,,,right,1.44536,,,,,,,,,0,9,9,6,1,,,,,,,,,,,,,,,,
,,,,,,,stim/VC_08.wav,5d97bf1cfaa2860015b165a6,2021-01-19_22h03.29.043,English_step1,2020.2.3,Win32,60,,,left,0.741815,,,,,,,,,0,10,10,7,1,,,,,,,,,,,,,,,,
,,,,,,,stim/VC_06.wav,5d97bf1cfaa2860015b165a6,2021-01-19_22h03.29.043,English_step1,2020.2.3,Win32,60,,,left,0.741905,,,,,,,,,1,0,11,5,1,,,,,,,,,,,,,,,,
,,,,,,,stim/VC_08.wav,5d97bf1cfaa2860015b165a6,2021-01-19_22h03.29.043,English_step1,2020.2.3,Win32,60,,,left,0.73596,,,,,,,,,1,1,12,7,1,,,,,,,,,,,,,,,,
,,,,,,,stim/VC_04.wav,5d97bf1cfaa2860015b165a6,2021-01-19_22h03.29.043,English_step1,2020.2.3,Win32,60,,,left,1.375545,,,,,,,,,1,2,13,3,1,,,,,,,,,,,,,,,,
,,,,,,,stim/VC_11.wav,5d97bf1cfaa2860015b165a6,2021-01-19_22h03.29.043,English_step1,2020.2.3,Win32,60,,,right,0.74655,,,,,,,,,1,3,14,10,1,,,,,,,,,,,,,,,,
,,,,,,,stim/VC_02.wav,5d97bf1cfaa2860015b165a6,2021-01-19_22h03.29.043,English_step1,2020.2.3,Win32,60,,,left,0.738705,,,,,,,,,1,4,15,1,1,,,,,,,,,,,,,,,,
,,,,,,,stim/VC_05.wav,5d97bf1cfaa2860015b165a6,2021-01-19_22h03.29.043,English_step1,2020.2.3,Win32,60,,,right,0.833755,,,,,,,,,1,5,16,4,1,,,,,,,,,,,,,,,,
,,,,,,,stim/VC_03.wav,5d97bf1cfaa2860015b165a6,2021-01-19_22h03.29.043,English_step1,2020.2.3,Win32,60,,,left,0.621475,,,,,,,,,1,6,17,2,1,,,,,,,,,,,,,,,,
,,,,,,,stim/VC_01.wav,5d97bf1cfaa2860015b165a6,2021-01-19_22h03.29.043,English_step1,2020.2.3,Win32,60,,,left,0.662235,,,,,,,,,1,7,18,0,1,,,,,,,,,,,,,,,,
,,,,,,,stim/VC_07.wav,5d97bf1cfaa2860015b165a6,2021-01-19_22h03.29.043,English_step1,2020.2.3,Win32,60,,,right,0.67424,,,,,,,,,1,8,19,6,1,,,,,,,,,,,,,,,,
,,,,,,,stim/VC_09.wav,5d97bf1cfaa2860015b165a6,2021-01-19_22h03.29.043,English_step1,2020.2.3,Win32,60,,,right,1.02705,,,,,,,,,1,9,20,8,1,,,,,,,,,,,,,,,,
,,,,,,,stim/VC_10.wav,5d97bf1cfaa2860015b165a6,2021-01-19_22h03.29.043,English_step1,2020.2.3,Win32,60,,,right,0.68581,,,,,,,,,1,10,21,9,1,,,,,,,,,,,,,,,,
,,,,,,,stim2/pa-05.wav,5d97bf1cfaa2860015b165a6,2021-01-19_22h03.29.043,English_step1,2020.2.3,Win32,60,,,,,,,,,,,,,,,,,,left,6.08399,0,0,0,10,1,,,,,,,,,
,,,,,,,stim2/pa+20.wav,5d97bf1cfaa2860015b165a6,2021-01-19_22h03.29.043,English_step1,2020.2.3,Win32,60,,,,,,,,,,,,,,,,,,left,0.79534,0,1,1,3,1,,,,,,,,,
,,,,,,,stim2/pa+50.wav,5d97bf1cfaa2860015b165a6,2021-01-19_22h03.29.043,English_step1,2020.2.3,Win32,60,,,,,,,,,,,,,,,,,,right,1.64956,0,2,2,9,1,,,,,,,,,
,,,,,,,stim2/pa+05.wav,5d97bf1cfaa2860015b165a6,2021-01-19_22h03.29.043,English_step1,2020.2.3,Win32,60,,,,,,,,,,,,,,,,,,left,1.99012,0,3,3,0,1,,,,,,,,,
,,,,,,,stim2/pa+40.wav,5d97bf1cfaa2860015b165a6,2021-01-19_22h03.29.043,English_step1,2020.2.3,Win32,60,,,,,,,,,,,,,,,,,,left,1.116915,0,4,4,7,1,,,,,,,,,
,,,,,,,stim2/pa+25.wav,5d97bf1cfaa2860015b165a6,2021-01-19_22h03.29.043,English_step1,2020.2.3,Win32,60,,,,,,,,,,,,,,,,,,left,1.05029,0,5,5,4,1,,,,,,,,,
,,,,,,,stim2/pa-25.wav,5d97bf1cfaa2860015b165a6,2021-01-19_22h03.29.043,English_step1,2020.2.3,Win32,60,,,,,,,,,,,,,,,,,,right,0.900455,0,6,6,14,1,,,,,,,,,
,,,,,,,stim2/pa+35.wav,5d97bf1cfaa2860015b165a6,2021-01-19_22h03.29.043,English_step1,2020.2.3,Win32,60,,,,,,,,,,,,,,,,,,right,0.584595,0,7,7,6,1,,,,,,,,,
,,,,,,,stim2/pa-20.wav,5d97bf1cfaa2860015b165a6,2021-01-19_22h03.29.043,English_step1,2020.2.3,Win32,60,,,,,,,,,,,,,,,,,,right,0.52941,0,8,8,13,1,,,,,,,,,
,,,,,,,stim2/pa+15.wav,5d97bf1cfaa2860015b165a6,2021-01-19_22h03.29.043,English_step1,2020.2.3,Win32,60,,,,,,,,,,,,,,,,,,left,0.487,0,9,9,2,1,,,,,,,,,
,,,,,,,stim2/pa-15.wav,5d97bf1cfaa2860015b165a6,2021-01-19_22h03.29.043,English_step1,2020.2.3,Win32,60,,,,,,,,,,,,,,,,,,left,0.54454,0,10,10,12,1,,,,,,,,,
,,,,,,,stim2/pa+10.wav,5d97bf1cfaa2860015b165a6,2021-01-19_22h03.29.043,English_step1,2020.2.3,Win32,60,,,,,,,,,,,,,,,,,,left,0.445895,0,11,11,1,1,,,,,,,,,
,,,,,,,stim2/pa-10.wav,5d97bf1cfaa2860015b165a6,2021-01-19_22h03.29.043,English_step1,2020.2.3,Win32,60,,,,,,,,,,,,,,,,,,left,0.42933,0,12,12,11,1,,,,,,,,,
,,,,,,,stim2/pa+30.wav,5d97bf1cfaa2860015b165a6,2021-01-19_22h03.29.043,English_step1,2020.2.3,Win32,60,,,,,,,,,,,,,,,,,,left,0.49759,0,13,13,5,1,,,,,,,,,
,,,,,,,stim2/pa-30.wav,5d97bf1cfaa2860015b165a6,2021-01-19_22h03.29.043,English_step1,2020.2.3,Win32,60,,,,,,,,,,,,,,,,,,right,0.462815,0,14,14,15,1,,,,,,,,,
,,,,,,,stim2/pa+45.wav,5d97bf1cfaa2860015b165a6,2021-01-19_22h03.29.043,English_step1,2020.2.3,Win32,60,,,,,,,,,,,,,,,,,,left,0.755315,0,15,15,8,1,,,,,,,,,
,,,,,,,stim2/pa-35.wav,5d97bf1cfaa2860015b165a6,2021-01-19_22h03.29.043,English_step1,2020.2.3,Win32,60,,,,,,,,,,,,,,,,,,right,0.673325,0,16,16,16,1,,,,,,,,,
,,,,,,,stim2/pa-30.wav,5d97bf1cfaa2860015b165a6,2021-01-19_22h03.29.043,English_step1,2020.2.3,Win32,60,,,,,,,,,,,,,,,,,,right,0.867045,1,0,17,15,1,,,,,,,,,
,,,,,,,stim2/pa+15.wav,5d97bf1cfaa2860015b165a6,2021-01-19_22h03.29.043,English_step1,2020.2.3,Win32,60,,,,,,,,,,,,,,,,,,left,0.56733,1,1,18,2,1,,,,,,,,,
,,,,,,,stim2/pa+35.wav,5d97bf1cfaa2860015b165a6,2021-01-19_22h03.29.043,English_step1,2020.2.3,Win32,60,,,,,,,,,,,,,,,,,,left,0.583595,1,2,19,6,1,,,,,,,,,
,,,,,,,stim2/pa-05.wav,5d97bf1cfaa2860015b165a6,2021-01-19_22h03.29.043,English_step1,2020.2.3,Win32,60,,,,,,,,,,,,,,,,,,left,0.567145,1,3,20,10,1,,,,,,,,,
,,,,,,,stim2/pa-15.wav,5d97bf1cfaa2860015b165a6,2021-01-19_22h03.29.043,English_step1,2020.2.3,Win32,60,,,,,,,,,,,,,,,,,,left,0.485415,1,4,21,12,1,,,,,,,,,
,,,,,,,stim2/pa+50.wav,5d97bf1cfaa2860015b165a6,2021-01-19_22h03.29.043,English_step1,2020.2.3,Win32,60,,,,,,,,,,,,,,,,,,right,0.545885,1,5,22,9,1,,,,,,,,,
,,,,,,,stim2/pa-10.wav,5d97bf1cfaa2860015b165a6,2021-01-19_22h03.29.043,English_step1,2020.2.3,Win32,60,,,,,,,,,,,,,,,,,,left,0.520405,1,6,23,11,1,,,,,,,,,
,,,,,,,stim2/pa+40.wav,5d97bf1cfaa2860015b165a6,2021-01-19_22h03.29.043,English_step1,2020.2.3,Win32,60,,,,,,,,,,,,,,,,,,left,0.50024,1,7,24,7,1,,,,,,,,,
,,,,,,,stim2/pa-25.wav,5d97bf1cfaa2860015b165a6,2021-01-19_22h03.29.043,English_step1,2020.2.3,Win32,60,,,,,,,,,,,,,,,,,,left,0.574675,1,8,25,14,1,,,,,,,,,
,,,,,,,stim2/pa+45.wav,5d97bf1cfaa2860015b165a6,2021-01-19_22h03.29.043,English_step1,2020.2.3,Win32,60,,,,,,,,,,,,,,,,,,right,1.069835,1,9,26,8,1,,,,,,,,,
,,,,,,,stim2/pa-35.wav,5d97bf1cfaa2860015b165a6,2021-01-19_22h03.29.043,English_step1,2020.2.3,Win32,60,,,,,,,,,,,,,,,,,,right,0.920245,1,10,27,16,1,,,,,,,,,
,,,,,,,stim2/pa-20.wav,5d97bf1cfaa2860015b165a6,2021-01-19_22h03.29.043,English_step1,2020.2.3,Win32,60,,,,,,,,,,,,,,,,,,right,0.60105,1,11,28,13,1,,,,,,,,,
,,,,,,,stim2/pa+30.wav,5d97bf1cfaa2860015b165a6,2021-01-19_22h03.29.043,English_step1,2020.2.3,Win32,60,,,,,,,,,,,,,,,,,,left,0.806535,1,12,29,5,1,,,,,,,,,
,,,,,,,stim2/pa+20.wav,5d97bf1cfaa2860015b165a6,2021-01-19_22h03.29.043,English_step1,2020.2.3,Win32,60,,,,,,,,,,,,,,,,,,left,1.194385,1,13,30,3,1,,,,,,,,,
,,,,,,,stim2/pa+05.wav,5d97bf1cfaa2860015b165a6,2021-01-19_22h03.29.043,English_step1,2020.2.3,Win32,60,,,,,,,,,,,,,,,,,,left,0.63465,1,14,31,0,1,,,,,,,,,
,,,,,,,stim2/pa+25.wav,5d97bf1cfaa2860015b165a6,2021-01-19_22h03.29.043,English_step1,2020.2.3,Win32,60,,,,,,,,,,,,,,,,,,left,0.62019,1,15,32,4,1,,,,,,,,,
,,,,,,,stim2/pa+10.wav,5d97bf1cfaa2860015b165a6,2021-01-19_22h03.29.043,English_step1,2020.2.3,Win32,60,,,,,,,,,,,,,,,,,,left,0.56891,1,16,33,1,1,,,,,,,,,
,,,,,,,stim2/pa-30.wav,5d97bf1cfaa2860015b165a6,2021-01-19_22h03.29.043,English_step1,2020.2.3,Win32,60,,,,,,,,,,,,,,,,,,right,0.645855,2,0,34,15,1,,,,,,,,,
,,,,,,,stim2/pa+50.wav,5d97bf1cfaa2860015b165a6,2021-01-19_22h03.29.043,English_step1,2020.2.3,Win32,60,,,,,,,,,,,,,,,,,,right,0.700745,2,1,35,9,1,,,,,,,,,
,,,,,,,stim2/pa-05.wav,5d97bf1cfaa2860015b165a6,2021-01-19_22h03.29.043,English_step1,2020.2.3,Win32,60,,,,,,,,,,,,,,,,,,right,0.57742,2,2,36,10,1,,,,,,,,,
,,,,,,,stim2/pa-20.wav,5d97bf1cfaa2860015b165a6,2021-01-19_22h03.29.043,English_step1,2020.2.3,Win32,60,,,,,,,,,,,,,,,,,,right,0.60041,2,3,37,13,1,,,,,,,,,
,,,,,,,stim2/pa+25.wav,5d97bf1cfaa2860015b165a6,2021-01-19_22h03.29.043,English_step1,2020.2.3,Win32,60,,,,,,,,,,,,,,,,,,right,0.66635,2,4,38,4,1,,,,,,,,,
,,,,,,,stim2/pa+05.wav,5d97bf1cfaa2860015b165a6,2021-01-19_22h03.29.043,English_step1,2020.2.3,Win32,60,,,,,,,,,,,,,,,,,,left,0.692365,2,5,39,0,1,,,,,,,,,
,,,,,,,stim2/pa-10.wav,5d97bf1cfaa2860015b165a6,2021-01-19_22h03.29.043,English_step1,2020.2.3,Win32,60,,,,,,,,,,,,,,,,,,left,0.617285,2,6,40,11,1,,,,,,,,,
,,,,,,,stim2/pa+35.wav,5d97bf1cfaa2860015b165a6,2021-01-19_22h03.29.043,English_step1,2020.2.3,Win32,60,,,,,,,,,,,,,,,,,,left,0.62586,2,7,41,6,1,,,,,,,,,
,,,,,,,stim2/pa+40.wav,5d97bf1cfaa2860015b165a6,2021-01-19_22h03.29.043,English_step1,2020.2.3,Win32,60,,,,,,,,,,,,,,,,,,left,0.530575,2,8,42,7,1,,,,,,,,,
,,,,,,,stim2/pa-15.wav,5d97bf1cfaa2860015b165a6,2021-01-19_22h03.29.043,English_step1,2020.2.3,Win32,60,,,,,,,,,,,,,,,,,,right,0.51014,2,9,43,12,1,,,,,,,,,
,,,,,,,stim2/pa+20.wav,5d97bf1cfaa2860015b165a6,2021-01-19_22h03.29.043,English_step1,2020.2.3,Win32,60,,,,,,,,,,,,,,,,,,left,1.447975,2,10,44,3,1,,,,,,,,,
,,,,,,,stim2/pa-25.wav,5d97bf1cfaa2860015b165a6,2021-01-19_22h03.29.043,English_step1,2020.2.3,Win32,60,,,,,,,,,,,,,,,,,,right,0.648005,2,11,45,14,1,,,,,,,,,
,,,,,,,stim2/pa+45.wav,5d97bf1cfaa2860015b165a6,2021-01-19_22h03.29.043,English_step1,2020.2.3,Win32,60,,,,,,,,,,,,,,,,,,left,0.61761,2,12,46,8,1,,,,,,,,,
,,,,,,,stim2/pa+15.wav,5d97bf1cfaa2860015b165a6,2021-01-19_22h03.29.043,English_step1,2020.2.3,Win32,60,,,,,,,,,,,,,,,,,,right,0.78419,2,13,47,2,1,,,,,,,,,
,,,,,,,stim2/pa+30.wav,5d97bf1cfaa2860015b165a6,2021-01-19_22h03.29.043,English_step1,2020.2.3,Win32,60,,,,,,,,,,,,,,,,,,left,0.650615,2,14,48,5,1,,,,,,,,,
,,,,,,,stim2/pa-35.wav,5d97bf1cfaa2860015b165a6,2021-01-19_22h03.29.043,English_step1,2020.2.3,Win32,60,,,,,,,,,,,,,,,,,,right,0.784135,2,15,49,16,1,,,,,,,,,
,,,,,,,stim2/pa+10.wav,5d97bf1cfaa2860015b165a6,2021-01-19_22h03.29.043,English_step1,2020.2.3,Win32,60,,,,,,,,,,,,,,,,,,left,0.64228,2,16,50,1,1,,,,,,,,,
,,,,,,,stim2/pa-05.wav,5d97bf1cfaa2860015b165a6,2021-01-19_22h03.29.043,English_step1,2020.2.3,Win32,60,,,,,,,,,,,,,,,,,,left,0.73676,,,,,,q,2.16697,0,0,0,10,1,,
,,,,,,,stim2/pa-10.wav,5d97bf1cfaa2860015b165a6,2021-01-19_22h03.29.043,English_step1,2020.2.3,Win32,60,,,,,,,,,,,,,,,,,,left,1.20587,,,,,,,,0,1,1,11,1,,
,,,,,,,stim2/pa+30.wav,5d97bf1cfaa2860015b165a6,2021-01-19_22h03.29.043,English_step1,2020.2.3,Win32,60,,,,,,,,,,,,,,,,,,right,0.96706,,,,,,,,0,2,2,5,1,,
,,,,,,,stim2/pa-30.wav,5d97bf1cfaa2860015b165a6,2021-01-19_22h03.29.043,English_step1,2020.2.3,Win32,60,,,,,,,,,,,,,,,,,,right,0.99636,,,,,,,,0,3,3,15,1,,
,,,,,,,stim2/pa-20.wav,5d97bf1cfaa2860015b165a6,2021-01-19_22h03.29.043,English_step1,2020.2.3,Win32,60,,,,,,,,,,,,,,,,,,right,0.67384,,,,,,,,0,4,4,13,1,,
,,,,,,,stim2/pa+50.wav,5d97bf1cfaa2860015b165a6,2021-01-19_22h03.29.043,English_step1,2020.2.3,Win32,60,,,,,,,,,,,,,,,,,,right,0.985055,,,,,,,,0,5,5,9,1,,
,,,,,,,stim2/pa+20.wav,5d97bf1cfaa2860015b165a6,2021-01-19_22h03.29.043,English_step1,2020.2.3,Win32,60,,,,,,,,,,,,,,,,,,left,0.73842,,,,,,,,0,6,6,3,1,,
,,,,,,,stim2/pa+35.wav,5d97bf1cfaa2860015b165a6,2021-01-19_22h03.29.043,English_step1,2020.2.3,Win32,60,,,,,,,,,,,,,,,,,,left,1.83331,,,,,,,,0,7,7,6,1,,
,,,,,,,stim2/pa+05.wav,5d97bf1cfaa2860015b165a6,2021-01-19_22h03.29.043,English_step1,2020.2.3,Win32,60,,,,,,,,,,,,,,,,,,left,0.917265,,,,,,,,0,8,8,0,1,,
,,,,,,,stim2/pa-35.wav,5d97bf1cfaa2860015b165a6,2021-01-19_22h03.29.043,English_step1,2020.2.3,Win32,60,,,,,,,,,,,,,,,,,,right,0.60835,,,,,,,,0,9,9,16,1,,
,,,,,,,stim2/pa+45.wav,5d97bf1cfaa2860015b165a6,2021-01-19_22h03.29.043,English_step1,2020.2.3,Win32,60,,,,,,,,,,,,,,,,,,right,0.592,,,,,,,,0,10,10,8,1,,
,,,,,,,stim2/pa-25.wav,5d97bf1cfaa2860015b165a6,2021-01-19_22h03.29.043,English_step1,2020.2.3,Win32,60,,,,,,,,,,,,,,,,,,right,0.68003,,,,,,,,0,11,11,14,1,,
,,,,,,,stim2/pa+40.wav,5d97bf1cfaa2860015b165a6,2021-01-19_22h03.29.043,English_step1,2020.2.3,Win32,60,,,,,,,,,,,,,,,,,,right,0.70041,,,,,,,,0,12,12,7,1,,
,,,,,,,stim2/pa+10.wav,5d97bf1cfaa2860015b165a6,2021-01-19_22h03.29.043,English_step1,2020.2.3,Win32,60,,,,,,,,,,,,,,,,,,left,0.63773,,,,,,,,0,13,13,1,1,,
,,,,,,,stim2/pa+25.wav,5d97bf1cfaa2860015b165a6,2021-01-19_22h03.29.043,English_step1,2020.2.3,Win32,60,,,,,,,,,,,,,,,,,,left,0.51977,,,,,,,,0,14,14,4,1,,
,,,,,,,stim2/pa+15.wav,5d97bf1cfaa2860015b165a6,2021-01-19_22h03.29.043,English_step1,2020.2.3,Win32,60,,,,,,,,,,,,,,,,,,right,0.628325,,,,,,,,0,15,15,2,1,,
,,,,,,,stim2/pa-15.wav,5d97bf1cfaa2860015b165a6,2021-01-19_22h03.29.043,English_step1,2020.2.3,Win32,60,,,,,,,,,,,,,,,,,,right,0.639015,,,,,,,,0,16,16,12,1,,
,,,,,,,stim2/pa+35.wav,5d97bf1cfaa2860015b165a6,2021-01-19_22h03.29.043,English_step1,2020.2.3,Win32,60,,,,,,,,,,,,,,,,,,left,1.100595,,,,,,,,1,0,17,6,1,,
,,,,,,,stim2/pa+20.wav,5d97bf1cfaa2860015b165a6,2021-01-19_22h03.29.043,English_step1,2020.2.3,Win32,60,,,,,,,,,,,,,,,,,,left,0.83359,,,,,,,,1,1,18,3,1,,
,,,,,,,stim2/pa+05.wav,5d97bf1cfaa2860015b165a6,2021-01-19_22h03.29.043,English_step1,2020.2.3,Win32,60,,,,,,,,,,,,,,,,,,left,0.549525,,,,,,,,1,2,19,0,1,,
,,,,,,,stim2/pa+40.wav,5d97bf1cfaa2860015b165a6,2021-01-19_22h03.29.043,English_step1,2020.2.3,Win32,60,,,,,,,,,,,,,,,,,,left,0.65041,,,,,,,,1,3,20,7,1,,
,,,,,,,stim2/pa+45.wav,5d97bf1cfaa2860015b165a6,2021-01-19_22h03.29.043,English_step1,2020.2.3,Win32,60,,,,,,,,,,,,,,,,,,left,0.700375,,,,,,,,1,4,21,8,1,,
,,,,,,,stim2/pa+25.wav,5d97bf1cfaa2860015b165a6,2021-01-19_22h03.29.043,English_step1,2020.2.3,Win32,60,,,,,,,,,,,,,,,,,,left,0.54531,,,,,,,,1,5,22,4,1,,
,,,,,,,stim2/pa-30.wav,5d97bf1cfaa2860015b165a6,2021-01-19_22h03.29.043,English_step1,2020.2.3,Win32,60,,,,,,,,,,,,,,,,,,right,0.600245,,,,,,,,1,6,23,15,1,,
,,,,,,,stim2/pa+10.wav,5d97bf1cfaa2860015b165a6,2021-01-19_22h03.29.043,English_step1,2020.2.3,Win32,60,,,,,,,,,,,,,,,,,,left,0.643655,,,,,,,,1,7,24,1,1,,
,,,,,,,stim2/pa+50.wav,5d97bf1cfaa2860015b165a6,2021-01-19_22h03.29.043,English_step1,2020.2.3,Win32,60,,,,,,,,,,,,,,,,,,left,0.75048,,,,,,,,1,8,25,9,1,,
,,,,,,,stim2/pa-10.wav,5d97bf1cfaa2860015b165a6,2021-01-19_22h03.29.043,English_step1,2020.2.3,Win32,60,,,,,,,,,,,,,,,,,,left,1.43308,,,,,,,,1,9,26,11,1,,
,,,,,,,stim2/pa+30.wav,5d97bf1cfaa2860015b165a6,2021-01-19_22h03.29.043,English_step1,2020.2.3,Win32,60,,,,,,,,,,,,,,,,,,right,0.68929,,,,,,,,1,10,27,5,1,,
,,,,,,,stim2/pa+15.wav,5d97bf1cfaa2860015b165a6,2021-01-19_22h03.29.043,English_step1,2020.2.3,Win32,60,,,,,,,,,,,,,,,,,,left,0.722235,,,,,,,,1,11,28,2,1,,
,,,,,,,stim2/pa-25.wav,5d97bf1cfaa2860015b165a6,2021-01-19_22h03.29.043,English_step1,2020.2.3,Win32,60,,,,,,,,,,,,,,,,,,right,0.70589,,,,,,,,1,12,29,14,1,,
,,,,,,,stim2/pa-20.wav,5d97bf1cfaa2860015b165a6,2021-01-19_22h03.29.043,English_step1,2020.2.3,Win32,60,,,,,,,,,,,,,,,,,,right,0.599705,,,,,,,,1,13,30,13,1,,
,,,,,,,stim2/pa-15.wav,5d97bf1cfaa2860015b165a6,2021-01-19_22h03.29.043,English_step1,2020.2.3,Win32,60,,,,,,,,,,,,,,,,,,right,0.530345,,,,,,,,1,14,31,12,1,,
,,,,,,,stim2/pa-05.wav,5d97bf1cfaa2860015b165a6,2021-01-19_22h03.29.043,English_step1,2020.2.3,Win32,60,,,,,,,,,,,,,,,,,,left,0.933145,,,,,,,,1,15,32,10,1,,
,,,,,,,stim2/pa-35.wav,5d97bf1cfaa2860015b165a6,2021-01-19_22h03.29.043,English_step1,2020.2.3,Win32,60,,,,,,,,,,,,,,,,,,right,0.68601,,,,,,,,1,16,33,16,1,,
,,,,,,,,5d97bf1cfaa2860015b165a6,2021-01-19_22h03.29.043,English_step1,2020.2.3,Win32,60,,,,,,,,,,,,,,,,,,,,,,,,,,,,,,,,space,15.44689
