resp.keys,resp.rt,trials.thisRepN,trials.thisTrialN,trials.thisN,trials.thisIndex,trials.ran,stimuli,participant,date,expName,psychopyVersion,OS,frameRate,gotResponse.keys,gotResponse.rt,resp_2.keys,resp_2.rt,trials_2.thisRepN,trials_2.thisTrialN,trials_2.thisN,trials_2.thisIndex,trials_2.ran,key_resp_3.keys,key_resp_3.corr,key_resp_3.rt,trials_4.thisRepN,trials_4.thisTrialN,trials_4.thisN,trials_4.thisIndex,trials_4.ran,resp_3.keys,resp_3.rt,trials_3.thisRepN,trials_3.thisTrialN,trials_3.thisN,trials_3.thisIndex,trials_3.ran,key_resp_2.keys,key_resp_2.rt,trials_5.thisRepN,trials_5.thisTrialN,trials_5.thisN,trials_5.thisIndex,trials_5.ran,key_resp.keys,key_resp.rt
left,0.886,0,0,0,0,1,stim/VC_01.wav,5eb471789686d82c24661cb3,2021-01-19_23h09.13.492,English_step1,2020.2.3,Win32,60,,,,,,,,,,,,,,,,,,,,,,,,,,,,,,,,,
right,1.104,0,1,1,1,1,stim/VC_11.wav,5eb471789686d82c24661cb3,2021-01-19_23h09.13.492,English_step1,2020.2.3,Win32,60,,,,,,,,,,,,,,,,,,,,,,,,,,,,,,,,,
,,,,,,,stim/VC_09.wav,5eb471789686d82c24661cb3,2021-01-19_23h09.13.492,English_step1,2020.2.3,Win32,60,space,1.525,right,0.743,0,0,0,8,1,,,,,,,,,,,,,,,,,,,,,,,,
,,,,,,,stim/VC_11.wav,5eb471789686d82c24661cb3,2021-01-19_23h09.13.492,English_step1,2020.2.3,Win32,60,,,right,0.751,0,1,1,10,1,,,,,,,,,,,,,,,,,,,,,,,,
,,,,,,,stim/VC_01.wav,5eb471789686d82c24661cb3,2021-01-19_23h09.13.492,English_step1,2020.2.3,Win32,60,,,left,0.567,0,2,2,0,1,,,,,,,,,,,,,,,,,,,,,,,,
,,,,,,,stim/VC_04.wav,5eb471789686d82c24661cb3,2021-01-19_23h09.13.492,English_step1,2020.2.3,Win32,60,,,left,0.768,0,3,3,3,1,,,,,,,,,,,,,,,,,,,,,,,,
,,,,,,,stim/VC_03.wav,5eb471789686d82c24661cb3,2021-01-19_23h09.13.492,English_step1,2020.2.3,Win32,60,,,left,0.419,0,4,4,2,1,,,,,,,,,,,,,,,,,,,,,,,,
,,,,,,,stim/VC_08.wav,5eb471789686d82c24661cb3,2021-01-19_23h09.13.492,English_step1,2020.2.3,Win32,60,,,right,0.585,0,5,5,7,1,,,,,,,,,,,,,,,,,,,,,,,,
,,,,,,,stim/VC_02.wav,5eb471789686d82c24661cb3,2021-01-19_23h09.13.492,English_step1,2020.2.3,Win32,60,,,left,0.501,0,6,6,1,1,,,,,,,,,,,,,,,,,,,,,,,,
,,,,,,,stim/VC_10.wav,5eb471789686d82c24661cb3,2021-01-19_23h09.13.492,English_step1,2020.2.3,Win32,60,,,right,0.585,0,7,7,9,1,,,,,,,,,,,,,,,,,,,,,,,,
,,,,,,,stim/VC_07.wav,5eb471789686d82c24661cb3,2021-01-19_23h09.13.492,English_step1,2020.2.3,Win32,60,,,right,0.919,0,8,8,6,1,,,,,,,,,,,,,,,,,,,,,,,,
,,,,,,,stim/VC_05.wav,5eb471789686d82c24661cb3,2021-01-19_23h09.13.492,English_step1,2020.2.3,Win32,60,,,left,1.468,0,9,9,4,1,,,,,,,,,,,,,,,,,,,,,,,,
,,,,,,,stim/VC_06.wav,5eb471789686d82c24661cb3,2021-01-19_23h09.13.492,English_step1,2020.2.3,Win32,60,,,left,1.018,0,10,10,5,1,,,,,,,,,,,,,,,,,,,,,,,,
,,,,,,,stim/VC_05.wav,5eb471789686d82c24661cb3,2021-01-19_23h09.13.492,English_step1,2020.2.3,Win32,60,,,left,0.687,1,0,11,4,1,,,,,,,,,,,,,,,,,,,,,,,,
,,,,,,,stim/VC_10.wav,5eb471789686d82c24661cb3,2021-01-19_23h09.13.492,English_step1,2020.2.3,Win32,60,,,right,0.534,1,1,12,9,1,,,,,,,,,,,,,,,,,,,,,,,,
,,,,,,,stim/VC_11.wav,5eb471789686d82c24661cb3,2021-01-19_23h09.13.492,English_step1,2020.2.3,Win32,60,,,right,0.453,1,2,13,10,1,,,,,,,,,,,,,,,,,,,,,,,,
,,,,,,,stim/VC_01.wav,5eb471789686d82c24661cb3,2021-01-19_23h09.13.492,English_step1,2020.2.3,Win32,60,,,left,0.438,1,3,14,0,1,,,,,,,,,,,,,,,,,,,,,,,,
,,,,,,,stim/VC_09.wav,5eb471789686d82c24661cb3,2021-01-19_23h09.13.492,English_step1,2020.2.3,Win32,60,,,right,0.577,1,4,15,8,1,,,,,,,,,,,,,,,,,,,,,,,,
,,,,,,,stim/VC_04.wav,5eb471789686d82c24661cb3,2021-01-19_23h09.13.492,English_step1,2020.2.3,Win32,60,,,left,0.802,1,5,16,3,1,,,,,,,,,,,,,,,,,,,,,,,,
,,,,,,,stim/VC_07.wav,5eb471789686d82c24661cb3,2021-01-19_23h09.13.492,English_step1,2020.2.3,Win32,60,,,right,0.736,1,6,17,6,1,,,,,,,,,,,,,,,,,,,,,,,,
,,,,,,,stim/VC_08.wav,5eb471789686d82c24661cb3,2021-01-19_23h09.13.492,English_step1,2020.2.3,Win32,60,,,right,0.768,1,7,18,7,1,,,,,,,,,,,,,,,,,,,,,,,,
,,,,,,,stim/VC_06.wav,5eb471789686d82c24661cb3,2021-01-19_23h09.13.492,English_step1,2020.2.3,Win32,60,,,right,1.457,1,8,19,5,1,,,,,,,,,,,,,,,,,,,,,,,,
,,,,,,,stim/VC_02.wav,5eb471789686d82c24661cb3,2021-01-19_23h09.13.492,English_step1,2020.2.3,Win32,60,,,left,0.62,1,9,20,1,1,,,,,,,,,,,,,,,,,,,,,,,,
,,,,,,,stim/VC_03.wav,5eb471789686d82c24661cb3,2021-01-19_23h09.13.492,English_step1,2020.2.3,Win32,60,,,left,0.542,1,10,21,2,1,,,,,,,,,,,,,,,,,,,,,,,,
,,,,,,,stim/VC_08.wav,5eb471789686d82c24661cb3,2021-01-19_23h09.13.492,English_step1,2020.2.3,Win32,60,,,right,0.487,2,0,22,7,1,,,,,,,,,,,,,,,,,,,,,,,,
,,,,,,,stim/VC_05.wav,5eb471789686d82c24661cb3,2021-01-19_23h09.13.492,English_step1,2020.2.3,Win32,60,,,left,0.668,2,1,23,4,1,,,,,,,,,,,,,,,,,,,,,,,,
,,,,,,,stim/VC_04.wav,5eb471789686d82c24661cb3,2021-01-19_23h09.13.492,English_step1,2020.2.3,Win32,60,,,left,0.506,2,2,24,3,1,,,,,,,,,,,,,,,,,,,,,,,,
,,,,,,,stim/VC_01.wav,5eb471789686d82c24661cb3,2021-01-19_23h09.13.492,English_step1,2020.2.3,Win32,60,,,left,0.668,2,3,25,0,1,,,,,,,,,,,,,,,,,,,,,,,,
,,,,,,,stim/VC_11.wav,5eb471789686d82c24661cb3,2021-01-19_23h09.13.492,English_step1,2020.2.3,Win32,60,,,right,0.619,2,4,26,10,1,,,,,,,,,,,,,,,,,,,,,,,,
,,,,,,,stim/VC_03.wav,5eb471789686d82c24661cb3,2021-01-19_23h09.13.492,English_step1,2020.2.3,Win32,60,,,left,0.835,2,5,27,2,1,,,,,,,,,,,,,,,,,,,,,,,,
,,,,,,,stim/VC_02.wav,5eb471789686d82c24661cb3,2021-01-19_23h09.13.492,English_step1,2020.2.3,Win32,60,,,left,0.569,2,6,28,1,1,,,,,,,,,,,,,,,,,,,,,,,,
,,,,,,,stim/VC_06.wav,5eb471789686d82c24661cb3,2021-01-19_23h09.13.492,English_step1,2020.2.3,Win32,60,,,left,0.717,2,7,29,5,1,,,,,,,,,,,,,,,,,,,,,,,,
,,,,,,,stim/VC_09.wav,5eb471789686d82c24661cb3,2021-01-19_23h09.13.492,English_step1,2020.2.3,Win32,60,,,right,0.537,2,8,30,8,1,,,,,,,,,,,,,,,,,,,,,,,,
,,,,,,,stim/VC_07.wav,5eb471789686d82c24661cb3,2021-01-19_23h09.13.492,English_step1,2020.2.3,Win32,60,,,right,0.905,2,9,31,6,1,,,,,,,,,,,,,,,,,,,,,,,,
,,,,,,,stim/VC_10.wav,5eb471789686d82c24661cb3,2021-01-19_23h09.13.492,English_step1,2020.2.3,Win32,60,,,right,0.603,2,10,32,9,1,,,,,,,,,,,,,,,,,,,,,,,,
,,,,,,,stim/VC_05.wav,5eb471789686d82c24661cb3,2021-01-19_23h09.13.492,English_step1,2020.2.3,Win32,60,,,left,0.886,,,,,,4,0,2.026,0,0,0,4,1,,,,,,,,,,,,,,,,
,,,,,,,stim/VC_06.wav,5eb471789686d82c24661cb3,2021-01-19_23h09.13.492,English_step1,2020.2.3,Win32,60,,,left,0.618,,,,,,,,,0,1,1,5,1,,,,,,,,,,,,,,,,
,,,,,,,stim/VC_07.wav,5eb471789686d82c24661cb3,2021-01-19_23h09.13.492,English_step1,2020.2.3,Win32,60,,,left,1.036,,,,,,,,,0,2,2,6,1,,,,,,,,,,,,,,,,
,,,,,,,stim/VC_03.wav,5eb471789686d82c24661cb3,2021-01-19_23h09.13.492,English_step1,2020.2.3,Win32,60,,,left,0.77,,,,,,,,,0,3,3,2,1,,,,,,,,,,,,,,,,
,,,,,,,stim/VC_08.wav,5eb471789686d82c24661cb3,2021-01-19_23h09.13.492,English_step1,2020.2.3,Win32,60,,,right,0.718,,,,,,,,,0,4,4,7,1,,,,,,,,,,,,,,,,
,,,,,,,stim/VC_04.wav,5eb471789686d82c24661cb3,2021-01-19_23h09.13.492,English_step1,2020.2.3,Win32,60,,,left,1.325,,,,,,,,,0,5,5,3,1,,,,,,,,,,,,,,,,
,,,,,,,stim/VC_02.wav,5eb471789686d82c24661cb3,2021-01-19_23h09.13.492,English_step1,2020.2.3,Win32,60,,,left,0.791,,,,,,,,,0,6,6,1,1,,,,,,,,,,,,,,,,
,,,,,,,stim/VC_01.wav,5eb471789686d82c24661cb3,2021-01-19_23h09.13.492,English_step1,2020.2.3,Win32,60,,,left,0.551,,,,,,,,,0,7,7,0,1,,,,,,,,,,,,,,,,
,,,,,,,stim/VC_10.wav,5eb471789686d82c24661cb3,2021-01-19_23h09.13.492,English_step1,2020.2.3,Win32,60,,,right,0.549,,,,,,,,,0,8,8,9,1,,,,,,,,,,,,,,,,
,,,,,,,stim/VC_11.wav,5eb471789686d82c24661cb3,2021-01-19_23h09.13.492,English_step1,2020.2.3,Win32,60,,,right,0.519,,,,,,,,,0,9,9,10,1,,,,,,,,,,,,,,,,
,,,,,,,stim/VC_09.wav,5eb471789686d82c24661cb3,2021-01-19_23h09.13.492,English_step1,2020.2.3,Win32,60,,,right,0.754,,,,,,,,,0,10,10,8,1,,,,,,,,,,,,,,,,
,,,,,,,stim/VC_10.wav,5eb471789686d82c24661cb3,2021-01-19_23h09.13.492,English_step1,2020.2.3,Win32,60,,,right,0.618,,,,,,,,,1,0,11,9,1,,,,,,,,,,,,,,,,
,,,,,,,stim/VC_11.wav,5eb471789686d82c24661cb3,2021-01-19_23h09.13.492,English_step1,2020.2.3,Win32,60,,,right,0.641,,,,,,,,,1,1,12,10,1,,,,,,,,,,,,,,,,
,,,,,,,stim/VC_07.wav,5eb471789686d82c24661cb3,2021-01-19_23h09.13.492,English_step1,2020.2.3,Win32,60,,,right,0.955,,,,,,,,,1,2,13,6,1,,,,,,,,,,,,,,,,
,,,,,,,stim/VC_04.wav,5eb471789686d82c24661cb3,2021-01-19_23h09.13.492,English_step1,2020.2.3,Win32,60,,,left,0.702,,,,,,,,,1,3,14,3,1,,,,,,,,,,,,,,,,
,,,,,,,stim/VC_08.wav,5eb471789686d82c24661cb3,2021-01-19_23h09.13.492,English_step1,2020.2.3,Win32,60,,,left,0.501,,,,,,,,,1,4,15,7,1,,,,,,,,,,,,,,,,
,,,,,,,stim/VC_01.wav,5eb471789686d82c24661cb3,2021-01-19_23h09.13.492,English_step1,2020.2.3,Win32,60,,,left,0.909,,,,,,,,,1,5,16,0,1,,,,,,,,,,,,,,,,
,,,,,,,stim/VC_09.wav,5eb471789686d82c24661cb3,2021-01-19_23h09.13.492,English_step1,2020.2.3,Win32,60,,,right,0.633,,,,,,,,,1,6,17,8,1,,,,,,,,,,,,,,,,
,,,,,,,stim/VC_02.wav,5eb471789686d82c24661cb3,2021-01-19_23h09.13.492,English_step1,2020.2.3,Win32,60,,,left,0.559,,,,,,,,,1,7,18,1,1,,,,,,,,,,,,,,,,
,,,,,,,stim/VC_06.wav,5eb471789686d82c24661cb3,2021-01-19_23h09.13.492,English_step1,2020.2.3,Win32,60,,,left,1.155,,,,,,,,,1,8,19,5,1,,,,,,,,,,,,,,,,
,,,,,,,stim/VC_05.wav,5eb471789686d82c24661cb3,2021-01-19_23h09.13.492,English_step1,2020.2.3,Win32,60,,,left,1.019,,,,,,,,,1,9,20,4,1,,,,,,,,,,,,,,,,
,,,,,,,stim/VC_03.wav,5eb471789686d82c24661cb3,2021-01-19_23h09.13.492,English_step1,2020.2.3,Win32,60,,,left,0.827,,,,,,,,,1,10,21,2,1,,,,,,,,,,,,,,,,
,,,,,,,stim2/pa+45.wav,5eb471789686d82c24661cb3,2021-01-19_23h09.13.492,English_step1,2020.2.3,Win32,60,,,,,,,,,,,,,,,,,,left,0.729,0,0,0,8,1,,,,,,,,,
,,,,,,,stim2/pa-35.wav,5eb471789686d82c24661cb3,2021-01-19_23h09.13.492,English_step1,2020.2.3,Win32,60,,,,,,,,,,,,,,,,,,right,0.7,0,1,1,16,1,,,,,,,,,
,,,,,,,stim2/pa-05.wav,5eb471789686d82c24661cb3,2021-01-19_23h09.13.492,English_step1,2020.2.3,Win32,60,,,,,,,,,,,,,,,,,,left,0.55,0,2,2,10,1,,,,,,,,,
,,,,,,,stim2/pa-30.wav,5eb471789686d82c24661cb3,2021-01-19_23h09.13.492,English_step1,2020.2.3,Win32,60,,,,,,,,,,,,,,,,,,right,0.434,0,3,3,15,1,,,,,,,,,
,,,,,,,stim2/pa+25.wav,5eb471789686d82c24661cb3,2021-01-19_23h09.13.492,English_step1,2020.2.3,Win32,60,,,,,,,,,,,,,,,,,,left,0.339,0,4,4,4,1,,,,,,,,,
,,,,,,,stim2/pa+20.wav,5eb471789686d82c24661cb3,2021-01-19_23h09.13.492,English_step1,2020.2.3,Win32,60,,,,,,,,,,,,,,,,,,left,0.442,0,5,5,3,1,,,,,,,,,
,,,,,,,stim2/pa+35.wav,5eb471789686d82c24661cb3,2021-01-19_23h09.13.492,English_step1,2020.2.3,Win32,60,,,,,,,,,,,,,,,,,,left,0.402,0,6,6,6,1,,,,,,,,,
,,,,,,,stim2/pa+50.wav,5eb471789686d82c24661cb3,2021-01-19_23h09.13.492,English_step1,2020.2.3,Win32,60,,,,,,,,,,,,,,,,,,left,0.369,0,7,7,9,1,,,,,,,,,
,,,,,,,stim2/pa+05.wav,5eb471789686d82c24661cb3,2021-01-19_23h09.13.492,English_step1,2020.2.3,Win32,60,,,,,,,,,,,,,,,,,,left,0.453,0,8,8,0,1,,,,,,,,,
,,,,,,,stim2/pa-15.wav,5eb471789686d82c24661cb3,2021-01-19_23h09.13.492,English_step1,2020.2.3,Win32,60,,,,,,,,,,,,,,,,,,left,0.37,0,9,9,12,1,,,,,,,,,
,,,,,,,stim2/pa+30.wav,5eb471789686d82c24661cb3,2021-01-19_23h09.13.492,English_step1,2020.2.3,Win32,60,,,,,,,,,,,,,,,,,,left,0.759,0,10,10,5,1,,,,,,,,,
,,,,,,,stim2/pa-10.wav,5eb471789686d82c24661cb3,2021-01-19_23h09.13.492,English_step1,2020.2.3,Win32,60,,,,,,,,,,,,,,,,,,right,0.551,0,11,11,11,1,,,,,,,,,
,,,,,,,stim2/pa+15.wav,5eb471789686d82c24661cb3,2021-01-19_23h09.13.492,English_step1,2020.2.3,Win32,60,,,,,,,,,,,,,,,,,,left,0.59,0,12,12,2,1,,,,,,,,,
,,,,,,,stim2/pa-20.wav,5eb471789686d82c24661cb3,2021-01-19_23h09.13.492,English_step1,2020.2.3,Win32,60,,,,,,,,,,,,,,,,,,right,0.568,0,13,13,13,1,,,,,,,,,
,,,,,,,stim2/pa-25.wav,5eb471789686d82c24661cb3,2021-01-19_23h09.13.492,English_step1,2020.2.3,Win32,60,,,,,,,,,,,,,,,,,,right,0.686,0,14,14,14,1,,,,,,,,,
,,,,,,,stim2/pa+40.wav,5eb471789686d82c24661cb3,2021-01-19_23h09.13.492,English_step1,2020.2.3,Win32,60,,,,,,,,,,,,,,,,,,left,0.601,0,15,15,7,1,,,,,,,,,
,,,,,,,stim2/pa+10.wav,5eb471789686d82c24661cb3,2021-01-19_23h09.13.492,English_step1,2020.2.3,Win32,60,,,,,,,,,,,,,,,,,,left,0.585,0,16,16,1,1,,,,,,,,,
,,,,,,,stim2/pa+35.wav,5eb471789686d82c24661cb3,2021-01-19_23h09.13.492,English_step1,2020.2.3,Win32,60,,,,,,,,,,,,,,,,,,left,0.802,1,0,17,6,1,,,,,,,,,
,,,,,,,stim2/pa+20.wav,5eb471789686d82c24661cb3,2021-01-19_23h09.13.492,English_step1,2020.2.3,Win32,60,,,,,,,,,,,,,,,,,,left,0.739,1,1,18,3,1,,,,,,,,,
,,,,,,,stim2/pa+40.wav,5eb471789686d82c24661cb3,2021-01-19_23h09.13.492,English_step1,2020.2.3,Win32,60,,,,,,,,,,,,,,,,,,left,0.554,1,2,19,7,1,,,,,,,,,
,,,,,,,stim2/pa-20.wav,5eb471789686d82c24661cb3,2021-01-19_23h09.13.492,English_step1,2020.2.3,Win32,60,,,,,,,,,,,,,,,,,,right,0.689,1,3,20,13,1,,,,,,,,,
,,,,,,,stim2/pa-05.wav,5eb471789686d82c24661cb3,2021-01-19_23h09.13.492,English_step1,2020.2.3,Win32,60,,,,,,,,,,,,,,,,,,right,0.873,1,4,21,10,1,,,,,,,,,
,,,,,,,stim2/pa-25.wav,5eb471789686d82c24661cb3,2021-01-19_23h09.13.492,English_step1,2020.2.3,Win32,60,,,,,,,,,,,,,,,,,,right,0.818,1,5,22,14,1,,,,,,,,,
,,,,,,,stim2/pa+50.wav,5eb471789686d82c24661cb3,2021-01-19_23h09.13.492,English_step1,2020.2.3,Win32,60,,,,,,,,,,,,,,,,,,left,0.558,1,6,23,9,1,,,,,,,,,
,,,,,,,stim2/pa+45.wav,5eb471789686d82c24661cb3,2021-01-19_23h09.13.492,English_step1,2020.2.3,Win32,60,,,,,,,,,,,,,,,,,,left,0.754,1,7,24,8,1,,,,,,,,,
,,,,,,,stim2/pa+05.wav,5eb471789686d82c24661cb3,2021-01-19_23h09.13.492,English_step1,2020.2.3,Win32,60,,,,,,,,,,,,,,,,,,left,0.535,1,8,25,0,1,,,,,,,,,
,,,,,,,stim2/pa+10.wav,5eb471789686d82c24661cb3,2021-01-19_23h09.13.492,English_step1,2020.2.3,Win32,60,,,,,,,,,,,,,,,,,,left,0.406,1,9,26,1,1,,,,,,,,,
,,,,,,,stim2/pa-30.wav,5eb471789686d82c24661cb3,2021-01-19_23h09.13.492,English_step1,2020.2.3,Win32,60,,,,,,,,,,,,,,,,,,right,0.587,1,10,27,15,1,,,,,,,,,
,,,,,,,stim2/pa+25.wav,5eb471789686d82c24661cb3,2021-01-19_23h09.13.492,English_step1,2020.2.3,Win32,60,,,,,,,,,,,,,,,,,,left,0.453,1,11,28,4,1,,,,,,,,,
,,,,,,,stim2/pa-35.wav,5eb471789686d82c24661cb3,2021-01-19_23h09.13.492,English_step1,2020.2.3,Win32,60,,,,,,,,,,,,,,,,,,right,0.574,1,12,29,16,1,,,,,,,,,
,,,,,,,stim2/pa+30.wav,5eb471789686d82c24661cb3,2021-01-19_23h09.13.492,English_step1,2020.2.3,Win32,60,,,,,,,,,,,,,,,,,,left,0.569,1,13,30,5,1,,,,,,,,,
,,,,,,,stim2/pa+15.wav,5eb471789686d82c24661cb3,2021-01-19_23h09.13.492,English_step1,2020.2.3,Win32,60,,,,,,,,,,,,,,,,,,left,0.567,1,14,31,2,1,,,,,,,,,
,,,,,,,stim2/pa-10.wav,5eb471789686d82c24661cb3,2021-01-19_23h09.13.492,English_step1,2020.2.3,Win32,60,,,,,,,,,,,,,,,,,,right,0.556,1,15,32,11,1,,,,,,,,,
,,,,,,,stim2/pa-15.wav,5eb471789686d82c24661cb3,2021-01-19_23h09.13.492,English_step1,2020.2.3,Win32,60,,,,,,,,,,,,,,,,,,right,0.652,1,16,33,12,1,,,,,,,,,
,,,,,,,stim2/pa-10.wav,5eb471789686d82c24661cb3,2021-01-19_23h09.13.492,English_step1,2020.2.3,Win32,60,,,,,,,,,,,,,,,,,,right,1.174,2,0,34,11,1,,,,,,,,,
,,,,,,,stim2/pa+30.wav,5eb471789686d82c24661cb3,2021-01-19_23h09.13.492,English_step1,2020.2.3,Win32,60,,,,,,,,,,,,,,,,,,left,0.486,2,1,35,5,1,,,,,,,,,
,,,,,,,stim2/pa-35.wav,5eb471789686d82c24661cb3,2021-01-19_23h09.13.492,English_step1,2020.2.3,Win32,60,,,,,,,,,,,,,,,,,,right,0.553,2,2,36,16,1,,,,,,,,,
,,,,,,,stim2/pa+45.wav,5eb471789686d82c24661cb3,2021-01-19_23h09.13.492,English_step1,2020.2.3,Win32,60,,,,,,,,,,,,,,,,,,left,0.519,2,3,37,8,1,,,,,,,,,
,,,,,,,stim2/pa+10.wav,5eb471789686d82c24661cb3,2021-01-19_23h09.13.492,English_step1,2020.2.3,Win32,60,,,,,,,,,,,,,,,,,,left,0.725,2,4,38,1,1,,,,,,,,,
,,,,,,,stim2/pa-05.wav,5eb471789686d82c24661cb3,2021-01-19_23h09.13.492,English_step1,2020.2.3,Win32,60,,,,,,,,,,,,,,,,,,left,0.454,2,5,39,10,1,,,,,,,,,
,,,,,,,stim2/pa+15.wav,5eb471789686d82c24661cb3,2021-01-19_23h09.13.492,English_step1,2020.2.3,Win32,60,,,,,,,,,,,,,,,,,,left,0.398,2,6,40,2,1,,,,,,,,,
,,,,,,,stim2/pa-20.wav,5eb471789686d82c24661cb3,2021-01-19_23h09.13.492,English_step1,2020.2.3,Win32,60,,,,,,,,,,,,,,,,,,left,0.406,2,7,41,13,1,,,,,,,,,
,,,,,,,stim2/pa+20.wav,5eb471789686d82c24661cb3,2021-01-19_23h09.13.492,English_step1,2020.2.3,Win32,60,,,,,,,,,,,,,,,,,,left,0.85,2,8,42,3,1,,,,,,,,,
,,,,,,,stim2/pa+50.wav,5eb471789686d82c24661cb3,2021-01-19_23h09.13.492,English_step1,2020.2.3,Win32,60,,,,,,,,,,,,,,,,,,left,0.873,2,9,43,9,1,,,,,,,,,
,,,,,,,stim2/pa-25.wav,5eb471789686d82c24661cb3,2021-01-19_23h09.13.492,English_step1,2020.2.3,Win32,60,,,,,,,,,,,,,,,,,,right,0.504,2,10,44,14,1,,,,,,,,,
,,,,,,,stim2/pa+25.wav,5eb471789686d82c24661cb3,2021-01-19_23h09.13.492,English_step1,2020.2.3,Win32,60,,,,,,,,,,,,,,,,,,left,0.675,2,11,45,4,1,,,,,,,,,
,,,,,,,stim2/pa+40.wav,5eb471789686d82c24661cb3,2021-01-19_23h09.13.492,English_step1,2020.2.3,Win32,60,,,,,,,,,,,,,,,,,,left,0.602,2,12,46,7,1,,,,,,,,,
,,,,,,,stim2/pa-15.wav,5eb471789686d82c24661cb3,2021-01-19_23h09.13.492,English_step1,2020.2.3,Win32,60,,,,,,,,,,,,,,,,,,right,0.501,2,13,47,12,1,,,,,,,,,
,,,,,,,stim2/pa+35.wav,5eb471789686d82c24661cb3,2021-01-19_23h09.13.492,English_step1,2020.2.3,Win32,60,,,,,,,,,,,,,,,,,,left,0.535,2,14,48,6,1,,,,,,,,,
,,,,,,,stim2/pa-30.wav,5eb471789686d82c24661cb3,2021-01-19_23h09.13.492,English_step1,2020.2.3,Win32,60,,,,,,,,,,,,,,,,,,right,0.436,2,15,49,15,1,,,,,,,,,
,,,,,,,stim2/pa+05.wav,5eb471789686d82c24661cb3,2021-01-19_23h09.13.492,English_step1,2020.2.3,Win32,60,,,,,,,,,,,,,,,,,,left,0.502,2,16,50,0,1,,,,,,,,,
,,,,,,,stim2/pa-20.wav,5eb471789686d82c24661cb3,2021-01-19_23h09.13.492,English_step1,2020.2.3,Win32,60,,,,,,,,,,,,,,,,,,right,1.142,,,,,,q,1.662,0,0,0,13,1,,
,,,,,,,stim2/pa-05.wav,5eb471789686d82c24661cb3,2021-01-19_23h09.13.492,English_step1,2020.2.3,Win32,60,,,,,,,,,,,,,,,,,,left,0.487,,,,,,,,0,1,1,10,1,,
,,,,,,,stim2/pa+20.wav,5eb471789686d82c24661cb3,2021-01-19_23h09.13.492,English_step1,2020.2.3,Win32,60,,,,,,,,,,,,,,,,,,left,1.271,,,,,,,,0,2,2,3,1,,
,,,,,,,stim2/pa+30.wav,5eb471789686d82c24661cb3,2021-01-19_23h09.13.492,English_step1,2020.2.3,Win32,60,,,,,,,,,,,,,,,,,,right,0.536,,,,,,,,0,3,3,5,1,,
,,,,,,,stim2/pa-35.wav,5eb471789686d82c24661cb3,2021-01-19_23h09.13.492,English_step1,2020.2.3,Win32,60,,,,,,,,,,,,,,,,,,right,0.801,,,,,,,,0,4,4,16,1,,
,,,,,,,stim2/pa+50.wav,5eb471789686d82c24661cb3,2021-01-19_23h09.13.492,English_step1,2020.2.3,Win32,60,,,,,,,,,,,,,,,,,,left,1.103,,,,,,,,0,5,5,9,1,,
,,,,,,,stim2/pa+15.wav,5eb471789686d82c24661cb3,2021-01-19_23h09.13.492,English_step1,2020.2.3,Win32,60,,,,,,,,,,,,,,,,,,left,0.501,,,,,,,,0,6,6,2,1,,
,,,,,,,stim2/pa-25.wav,5eb471789686d82c24661cb3,2021-01-19_23h09.13.492,English_step1,2020.2.3,Win32,60,,,,,,,,,,,,,,,,,,right,0.81,,,,,,,,0,7,7,14,1,,
,,,,,,,stim2/pa+25.wav,5eb471789686d82c24661cb3,2021-01-19_23h09.13.492,English_step1,2020.2.3,Win32,60,,,,,,,,,,,,,,,,,,left,0.707,,,,,,,,0,8,8,4,1,,
,,,,,,,stim2/pa+35.wav,5eb471789686d82c24661cb3,2021-01-19_23h09.13.492,English_step1,2020.2.3,Win32,60,,,,,,,,,,,,,,,,,,left,1.426,,,,,,,,0,9,9,6,1,,
,,,,,,,stim2/pa-30.wav,5eb471789686d82c24661cb3,2021-01-19_23h09.13.492,English_step1,2020.2.3,Win32,60,,,,,,,,,,,,,,,,,,right,0.584,,,,,,,,0,10,10,15,1,,
,,,,,,,stim2/pa+40.wav,5eb471789686d82c24661cb3,2021-01-19_23h09.13.492,English_step1,2020.2.3,Win32,60,,,,,,,,,,,,,,,,,,left,1.009,,,,,,,,0,11,11,7,1,,
,,,,,,,stim2/pa-15.wav,5eb471789686d82c24661cb3,2021-01-19_23h09.13.492,English_step1,2020.2.3,Win32,60,,,,,,,,,,,,,,,,,,right,0.518,,,,,,,,0,12,12,12,1,,
,,,,,,,stim2/pa-10.wav,5eb471789686d82c24661cb3,2021-01-19_23h09.13.492,English_step1,2020.2.3,Win32,60,,,,,,,,,,,,,,,,,,right,1.118,,,,,,,,0,13,13,11,1,,
,,,,,,,stim2/pa+45.wav,5eb471789686d82c24661cb3,2021-01-19_23h09.13.492,English_step1,2020.2.3,Win32,60,,,,,,,,,,,,,,,,,,left,0.651,,,,,,,,0,14,14,8,1,,
,,,,,,,stim2/pa+10.wav,5eb471789686d82c24661cb3,2021-01-19_23h09.13.492,English_step1,2020.2.3,Win32,60,,,,,,,,,,,,,,,,,,right,1.104,,,,,,,,0,15,15,1,1,,
,,,,,,,stim2/pa+05.wav,5eb471789686d82c24661cb3,2021-01-19_23h09.13.492,English_step1,2020.2.3,Win32,60,,,,,,,,,,,,,,,,,,left,0.488,,,,,,,,0,16,16,0,1,,
,,,,,,,stim2/pa+20.wav,5eb471789686d82c24661cb3,2021-01-19_23h09.13.492,English_step1,2020.2.3,Win32,60,,,,,,,,,,,,,,,,,,left,0.759,,,,,,,,1,0,17,3,1,,
,,,,,,,stim2/pa-35.wav,5eb471789686d82c24661cb3,2021-01-19_23h09.13.492,English_step1,2020.2.3,Win32,60,,,,,,,,,,,,,,,,,,right,0.551,,,,,,,,1,1,18,16,1,,
,,,,,,,stim2/pa+05.wav,5eb471789686d82c24661cb3,2021-01-19_23h09.13.492,English_step1,2020.2.3,Win32,60,,,,,,,,,,,,,,,,,,left,0.452,,,,,,,,1,2,19,0,1,,
,,,,,,,stim2/pa-30.wav,5eb471789686d82c24661cb3,2021-01-19_23h09.13.492,English_step1,2020.2.3,Win32,60,,,,,,,,,,,,,,,,,,right,0.536,,,,,,,,1,3,20,15,1,,
,,,,,,,stim2/pa+30.wav,5eb471789686d82c24661cb3,2021-01-19_23h09.13.492,English_step1,2020.2.3,Win32,60,,,,,,,,,,,,,,,,,,left,0.522,,,,,,,,1,4,21,5,1,,
,,,,,,,stim2/pa-20.wav,5eb471789686d82c24661cb3,2021-01-19_23h09.13.492,English_step1,2020.2.3,Win32,60,,,,,,,,,,,,,,,,,,right,0.525,,,,,,,,1,5,22,13,1,,
,,,,,,,stim2/pa-15.wav,5eb471789686d82c24661cb3,2021-01-19_23h09.13.492,English_step1,2020.2.3,Win32,60,,,,,,,,,,,,,,,,,,left,0.384,,,,,,,,1,6,23,12,1,,
,,,,,,,stim2/pa+40.wav,5eb471789686d82c24661cb3,2021-01-19_23h09.13.492,English_step1,2020.2.3,Win32,60,,,,,,,,,,,,,,,,,,left,0.569,,,,,,,,1,7,24,7,1,,
,,,,,,,stim2/pa+50.wav,5eb471789686d82c24661cb3,2021-01-19_23h09.13.492,English_step1,2020.2.3,Win32,60,,,,,,,,,,,,,,,,,,left,0.601,,,,,,,,1,8,25,9,1,,
,,,,,,,stim2/pa-10.wav,5eb471789686d82c24661cb3,2021-01-19_23h09.13.492,English_step1,2020.2.3,Win32,60,,,,,,,,,,,,,,,,,,right,0.518,,,,,,,,1,9,26,11,1,,
,,,,,,,stim2/pa+10.wav,5eb471789686d82c24661cb3,2021-01-19_23h09.13.492,English_step1,2020.2.3,Win32,60,,,,,,,,,,,,,,,,,,left,0.691,,,,,,,,1,10,27,1,1,,
,,,,,,,stim2/pa-05.wav,5eb471789686d82c24661cb3,2021-01-19_23h09.13.492,English_step1,2020.2.3,Win32,60,,,,,,,,,,,,,,,,,,right,0.435,,,,,,,,1,11,28,10,1,,
,,,,,,,stim2/pa+45.wav,5eb471789686d82c24661cb3,2021-01-19_23h09.13.492,English_step1,2020.2.3,Win32,60,,,,,,,,,,,,,,,,,,left,0.369,,,,,,,,1,12,29,8,1,,
,,,,,,,stim2/pa+25.wav,5eb471789686d82c24661cb3,2021-01-19_23h09.13.492,English_step1,2020.2.3,Win32,60,,,,,,,,,,,,,,,,,,left,0.69,,,,,,,,1,13,30,4,1,,
,,,,,,,stim2/pa-25.wav,5eb471789686d82c24661cb3,2021-01-19_23h09.13.492,English_step1,2020.2.3,Win32,60,,,,,,,,,,,,,,,,,,left,0.626,,,,,,,,1,14,31,14,1,,
,,,,,,,stim2/pa+15.wav,5eb471789686d82c24661cb3,2021-01-19_23h09.13.492,English_step1,2020.2.3,Win32,60,,,,,,,,,,,,,,,,,,left,0.535,,,,,,,,1,15,32,2,1,,
,,,,,,,stim2/pa+35.wav,5eb471789686d82c24661cb3,2021-01-19_23h09.13.492,English_step1,2020.2.3,Win32,60,,,,,,,,,,,,,,,,,,left,0.575,,,,,,,,1,16,33,6,1,,
,,,,,,,,5eb471789686d82c24661cb3,2021-01-19_23h09.13.492,English_step1,2020.2.3,Win32,60,,,,,,,,,,,,,,,,,,,,,,,,,,,,,,,,space,22.67
