resp.keys,resp.rt,trials.thisRepN,trials.thisTrialN,trials.thisN,trials.thisIndex,trials.ran,stimuli,participant,date,expName,psychopyVersion,OS,frameRate,gotResponse.keys,gotResponse.rt,resp_2.keys,resp_2.rt,trials_2.thisRepN,trials_2.thisTrialN,trials_2.thisN,trials_2.thisIndex,trials_2.ran,key_resp_3.keys,key_resp_3.corr,key_resp_3.rt,trials_4.thisRepN,trials_4.thisTrialN,trials_4.thisN,trials_4.thisIndex,trials_4.ran,resp_3.keys,resp_3.rt,trials_3.thisRepN,trials_3.thisTrialN,trials_3.thisN,trials_3.thisIndex,trials_3.ran,key_resp_2.keys,key_resp_2.rt,trials_5.thisRepN,trials_5.thisTrialN,trials_5.thisN,trials_5.thisIndex,trials_5.ran,key_resp.keys,key_resp.rt
right,2.971855,0,0,0,1,1,stim/VC_11.wav,5ffdbbc7ccbb0e317390f548,2021-02-24_19h59.26.854,English_step1,2020.2.3,MacIntel,60,,,,,,,,,,,,,,,,,,,,,,,,,,,,,,,,,
left,0.880645,0,1,1,0,1,stim/VC_01.wav,5ffdbbc7ccbb0e317390f548,2021-02-24_19h59.26.854,English_step1,2020.2.3,MacIntel,60,,,,,,,,,,,,,,,,,,,,,,,,,,,,,,,,,
,,,,,,,stim/VC_10.wav,5ffdbbc7ccbb0e317390f548,2021-02-24_19h59.26.854,English_step1,2020.2.3,MacIntel,60,space,2.445825,right,0.892895,0,0,0,9,1,,,,,,,,,,,,,,,,,,,,,,,,
,,,,,,,stim/VC_08.wav,5ffdbbc7ccbb0e317390f548,2021-02-24_19h59.26.854,English_step1,2020.2.3,MacIntel,60,,,right,0.676825,0,1,1,7,1,,,,,,,,,,,,,,,,,,,,,,,,
,,,,,,,stim/VC_07.wav,5ffdbbc7ccbb0e317390f548,2021-02-24_19h59.26.854,English_step1,2020.2.3,MacIntel,60,,,right,1.33697,0,2,2,6,1,,,,,,,,,,,,,,,,,,,,,,,,
,,,,,,,stim/VC_03.wav,5ffdbbc7ccbb0e317390f548,2021-02-24_19h59.26.854,English_step1,2020.2.3,MacIntel,60,,,left,0.74509,0,3,3,2,1,,,,,,,,,,,,,,,,,,,,,,,,
,,,,,,,stim/VC_09.wav,5ffdbbc7ccbb0e317390f548,2021-02-24_19h59.26.854,English_step1,2020.2.3,MacIntel,60,,,right,2.122255,0,4,4,8,1,,,,,,,,,,,,,,,,,,,,,,,,
,,,,,,,stim/VC_05.wav,5ffdbbc7ccbb0e317390f548,2021-02-24_19h59.26.854,English_step1,2020.2.3,MacIntel,60,,,left,0.75359,0,5,5,4,1,,,,,,,,,,,,,,,,,,,,,,,,
,,,,,,,stim/VC_02.wav,5ffdbbc7ccbb0e317390f548,2021-02-24_19h59.26.854,English_step1,2020.2.3,MacIntel,60,,,left,0.63473,0,6,6,1,1,,,,,,,,,,,,,,,,,,,,,,,,
,,,,,,,stim/VC_01.wav,5ffdbbc7ccbb0e317390f548,2021-02-24_19h59.26.854,English_step1,2020.2.3,MacIntel,60,,,left,0.6168,0,7,7,0,1,,,,,,,,,,,,,,,,,,,,,,,,
,,,,,,,stim/VC_04.wav,5ffdbbc7ccbb0e317390f548,2021-02-24_19h59.26.854,English_step1,2020.2.3,MacIntel,60,,,left,0.90123,0,8,8,3,1,,,,,,,,,,,,,,,,,,,,,,,,
,,,,,,,stim/VC_11.wav,5ffdbbc7ccbb0e317390f548,2021-02-24_19h59.26.854,English_step1,2020.2.3,MacIntel,60,,,right,0.61216,0,9,9,10,1,,,,,,,,,,,,,,,,,,,,,,,,
,,,,,,,stim/VC_06.wav,5ffdbbc7ccbb0e317390f548,2021-02-24_19h59.26.854,English_step1,2020.2.3,MacIntel,60,,,left,0.533055,0,10,10,5,1,,,,,,,,,,,,,,,,,,,,,,,,
,,,,,,,stim/VC_11.wav,5ffdbbc7ccbb0e317390f548,2021-02-24_19h59.26.854,English_step1,2020.2.3,MacIntel,60,,,right,0.734685,1,0,11,10,1,,,,,,,,,,,,,,,,,,,,,,,,
,,,,,,,stim/VC_04.wav,5ffdbbc7ccbb0e317390f548,2021-02-24_19h59.26.854,English_step1,2020.2.3,MacIntel,60,,,left,0.333865,1,1,12,3,1,,,,,,,,,,,,,,,,,,,,,,,,
,,,,,,,stim/VC_06.wav,5ffdbbc7ccbb0e317390f548,2021-02-24_19h59.26.854,English_step1,2020.2.3,MacIntel,60,,,left,0.633835,1,2,13,5,1,,,,,,,,,,,,,,,,,,,,,,,,
,,,,,,,stim/VC_08.wav,5ffdbbc7ccbb0e317390f548,2021-02-24_19h59.26.854,English_step1,2020.2.3,MacIntel,60,,,right,0.50198,1,3,14,7,1,,,,,,,,,,,,,,,,,,,,,,,,
,,,,,,,stim/VC_03.wav,5ffdbbc7ccbb0e317390f548,2021-02-24_19h59.26.854,English_step1,2020.2.3,MacIntel,60,,,left,0.393015,1,4,15,2,1,,,,,,,,,,,,,,,,,,,,,,,,
,,,,,,,stim/VC_02.wav,5ffdbbc7ccbb0e317390f548,2021-02-24_19h59.26.854,English_step1,2020.2.3,MacIntel,60,,,left,0.57916,1,5,16,1,1,,,,,,,,,,,,,,,,,,,,,,,,
,,,,,,,stim/VC_07.wav,5ffdbbc7ccbb0e317390f548,2021-02-24_19h59.26.854,English_step1,2020.2.3,MacIntel,60,,,right,0.559885,1,6,17,6,1,,,,,,,,,,,,,,,,,,,,,,,,
,,,,,,,stim/VC_05.wav,5ffdbbc7ccbb0e317390f548,2021-02-24_19h59.26.854,English_step1,2020.2.3,MacIntel,60,,,left,0.734945,1,7,18,4,1,,,,,,,,,,,,,,,,,,,,,,,,
,,,,,,,stim/VC_10.wav,5ffdbbc7ccbb0e317390f548,2021-02-24_19h59.26.854,English_step1,2020.2.3,MacIntel,60,,,right,0.72823,1,8,19,9,1,,,,,,,,,,,,,,,,,,,,,,,,
,,,,,,,stim/VC_09.wav,5ffdbbc7ccbb0e317390f548,2021-02-24_19h59.26.854,English_step1,2020.2.3,MacIntel,60,,,right,0.49069,1,9,20,8,1,,,,,,,,,,,,,,,,,,,,,,,,
,,,,,,,stim/VC_01.wav,5ffdbbc7ccbb0e317390f548,2021-02-24_19h59.26.854,English_step1,2020.2.3,MacIntel,60,,,left,0.666975,1,10,21,0,1,,,,,,,,,,,,,,,,,,,,,,,,
,,,,,,,stim/VC_10.wav,5ffdbbc7ccbb0e317390f548,2021-02-24_19h59.26.854,English_step1,2020.2.3,MacIntel,60,,,right,0.58608,2,0,22,9,1,,,,,,,,,,,,,,,,,,,,,,,,
,,,,,,,stim/VC_05.wav,5ffdbbc7ccbb0e317390f548,2021-02-24_19h59.26.854,English_step1,2020.2.3,MacIntel,60,,,left,0.529745,2,1,23,4,1,,,,,,,,,,,,,,,,,,,,,,,,
,,,,,,,stim/VC_04.wav,5ffdbbc7ccbb0e317390f548,2021-02-24_19h59.26.854,English_step1,2020.2.3,MacIntel,60,,,left,0.4881,2,2,24,3,1,,,,,,,,,,,,,,,,,,,,,,,,
,,,,,,,stim/VC_06.wav,5ffdbbc7ccbb0e317390f548,2021-02-24_19h59.26.854,English_step1,2020.2.3,MacIntel,60,,,left,0.569665,2,3,25,5,1,,,,,,,,,,,,,,,,,,,,,,,,
,,,,,,,stim/VC_08.wav,5ffdbbc7ccbb0e317390f548,2021-02-24_19h59.26.854,English_step1,2020.2.3,MacIntel,60,,,left,0.65348,2,4,26,7,1,,,,,,,,,,,,,,,,,,,,,,,,
,,,,,,,stim/VC_07.wav,5ffdbbc7ccbb0e317390f548,2021-02-24_19h59.26.854,English_step1,2020.2.3,MacIntel,60,,,right,2.118595,2,5,27,6,1,,,,,,,,,,,,,,,,,,,,,,,,
,,,,,,,stim/VC_09.wav,5ffdbbc7ccbb0e317390f548,2021-02-24_19h59.26.854,English_step1,2020.2.3,MacIntel,60,,,right,0.70452,2,6,28,8,1,,,,,,,,,,,,,,,,,,,,,,,,
,,,,,,,stim/VC_03.wav,5ffdbbc7ccbb0e317390f548,2021-02-24_19h59.26.854,English_step1,2020.2.3,MacIntel,60,,,left,0.79233,2,7,29,2,1,,,,,,,,,,,,,,,,,,,,,,,,
,,,,,,,stim/VC_02.wav,5ffdbbc7ccbb0e317390f548,2021-02-24_19h59.26.854,English_step1,2020.2.3,MacIntel,60,,,left,0.50468,2,8,30,1,1,,,,,,,,,,,,,,,,,,,,,,,,
,,,,,,,stim/VC_01.wav,5ffdbbc7ccbb0e317390f548,2021-02-24_19h59.26.854,English_step1,2020.2.3,MacIntel,60,,,left,0.63651,2,9,31,0,1,,,,,,,,,,,,,,,,,,,,,,,,
,,,,,,,stim/VC_11.wav,5ffdbbc7ccbb0e317390f548,2021-02-24_19h59.26.854,English_step1,2020.2.3,MacIntel,60,,,right,1.295205,2,10,32,10,1,,,,,,,,,,,,,,,,,,,,,,,,
,,,,,,,stim/VC_02.wav,5ffdbbc7ccbb0e317390f548,2021-02-24_19h59.26.854,English_step1,2020.2.3,MacIntel,60,,,left,0.923985,,,,,,4,0,7.00999,0,0,0,1,1,,,,,,,,,,,,,,,,
,,,,,,,stim/VC_11.wav,5ffdbbc7ccbb0e317390f548,2021-02-24_19h59.26.854,English_step1,2020.2.3,MacIntel,60,,,right,0.57917,,,,,,,,,0,1,1,10,1,,,,,,,,,,,,,,,,
,,,,,,,stim/VC_09.wav,5ffdbbc7ccbb0e317390f548,2021-02-24_19h59.26.854,English_step1,2020.2.3,MacIntel,60,,,left,0.43587,,,,,,,,,0,2,2,8,1,,,,,,,,,,,,,,,,
,,,,,,,stim/VC_07.wav,5ffdbbc7ccbb0e317390f548,2021-02-24_19h59.26.854,English_step1,2020.2.3,MacIntel,60,,,right,2.74775,,,,,,,,,0,3,3,6,1,,,,,,,,,,,,,,,,
,,,,,,,stim/VC_04.wav,5ffdbbc7ccbb0e317390f548,2021-02-24_19h59.26.854,English_step1,2020.2.3,MacIntel,60,,,left,0.6677,,,,,,,,,0,4,4,3,1,,,,,,,,,,,,,,,,
,,,,,,,stim/VC_05.wav,5ffdbbc7ccbb0e317390f548,2021-02-24_19h59.26.854,English_step1,2020.2.3,MacIntel,60,,,left,0.451475,,,,,,,,,0,5,5,4,1,,,,,,,,,,,,,,,,
,,,,,,,stim/VC_10.wav,5ffdbbc7ccbb0e317390f548,2021-02-24_19h59.26.854,English_step1,2020.2.3,MacIntel,60,,,right,0.550305,,,,,,,,,0,6,6,9,1,,,,,,,,,,,,,,,,
,,,,,,,stim/VC_08.wav,5ffdbbc7ccbb0e317390f548,2021-02-24_19h59.26.854,English_step1,2020.2.3,MacIntel,60,,,right,0.54609,,,,,,,,,0,7,7,7,1,,,,,,,,,,,,,,,,
,,,,,,,stim/VC_03.wav,5ffdbbc7ccbb0e317390f548,2021-02-24_19h59.26.854,English_step1,2020.2.3,MacIntel,60,,,left,0.46673,,,,,,,,,0,8,8,2,1,,,,,,,,,,,,,,,,
,,,,,,,stim/VC_01.wav,5ffdbbc7ccbb0e317390f548,2021-02-24_19h59.26.854,English_step1,2020.2.3,MacIntel,60,,,left,0.593485,,,,,,,,,0,9,9,0,1,,,,,,,,,,,,,,,,
,,,,,,,stim/VC_06.wav,5ffdbbc7ccbb0e317390f548,2021-02-24_19h59.26.854,English_step1,2020.2.3,MacIntel,60,,,left,1.000805,,,,,,,,,0,10,10,5,1,,,,,,,,,,,,,,,,
,,,,,,,stim/VC_10.wav,5ffdbbc7ccbb0e317390f548,2021-02-24_19h59.26.854,English_step1,2020.2.3,MacIntel,60,,,right,0.543815,,,,,,,,,1,0,11,9,1,,,,,,,,,,,,,,,,
,,,,,,,stim/VC_04.wav,5ffdbbc7ccbb0e317390f548,2021-02-24_19h59.26.854,English_step1,2020.2.3,MacIntel,60,,,left,0.449605,,,,,,,,,1,1,12,3,1,,,,,,,,,,,,,,,,
,,,,,,,stim/VC_07.wav,5ffdbbc7ccbb0e317390f548,2021-02-24_19h59.26.854,English_step1,2020.2.3,MacIntel,60,,,right,0.417005,,,,,,,,,1,2,13,6,1,,,,,,,,,,,,,,,,
,,,,,,,stim/VC_03.wav,5ffdbbc7ccbb0e317390f548,2021-02-24_19h59.26.854,English_step1,2020.2.3,MacIntel,60,,,left,0.450825,,,,,,,,,1,3,14,2,1,,,,,,,,,,,,,,,,
,,,,,,,stim/VC_01.wav,5ffdbbc7ccbb0e317390f548,2021-02-24_19h59.26.854,English_step1,2020.2.3,MacIntel,60,,,left,0.79714,,,,,,,,,1,4,15,0,1,,,,,,,,,,,,,,,,
,,,,,,,stim/VC_11.wav,5ffdbbc7ccbb0e317390f548,2021-02-24_19h59.26.854,English_step1,2020.2.3,MacIntel,60,,,right,0.668985,,,,,,,,,1,5,16,10,1,,,,,,,,,,,,,,,,
,,,,,,,stim/VC_05.wav,5ffdbbc7ccbb0e317390f548,2021-02-24_19h59.26.854,English_step1,2020.2.3,MacIntel,60,,,left,0.773305,,,,,,,,,1,6,17,4,1,,,,,,,,,,,,,,,,
,,,,,,,stim/VC_08.wav,5ffdbbc7ccbb0e317390f548,2021-02-24_19h59.26.854,English_step1,2020.2.3,MacIntel,60,,,left,0.56897,,,,,,,,,1,7,18,7,1,,,,,,,,,,,,,,,,
,,,,,,,stim/VC_09.wav,5ffdbbc7ccbb0e317390f548,2021-02-24_19h59.26.854,English_step1,2020.2.3,MacIntel,60,,,right,0.685385,,,,,,,,,1,8,19,8,1,,,,,,,,,,,,,,,,
,,,,,,,stim/VC_02.wav,5ffdbbc7ccbb0e317390f548,2021-02-24_19h59.26.854,English_step1,2020.2.3,MacIntel,60,,,left,0.474385,,,,,,,,,1,9,20,1,1,,,,,,,,,,,,,,,,
,,,,,,,stim/VC_06.wav,5ffdbbc7ccbb0e317390f548,2021-02-24_19h59.26.854,English_step1,2020.2.3,MacIntel,60,,,left,0.48855,,,,,,,,,1,10,21,5,1,,,,,,,,,,,,,,,,
,,,,,,,stim2/pa-15.wav,5ffdbbc7ccbb0e317390f548,2021-02-24_19h59.26.854,English_step1,2020.2.3,MacIntel,60,,,,,,,,,,,,,,,,,,right,2.77208,0,0,0,12,1,,,,,,,,,
,,,,,,,stim2/pa-20.wav,5ffdbbc7ccbb0e317390f548,2021-02-24_19h59.26.854,English_step1,2020.2.3,MacIntel,60,,,,,,,,,,,,,,,,,,right,1.158445,0,1,1,13,1,,,,,,,,,
,,,,,,,stim2/pa+05.wav,5ffdbbc7ccbb0e317390f548,2021-02-24_19h59.26.854,English_step1,2020.2.3,MacIntel,60,,,,,,,,,,,,,,,,,,left,0.77985,0,2,2,0,1,,,,,,,,,
,,,,,,,stim2/pa+30.wav,5ffdbbc7ccbb0e317390f548,2021-02-24_19h59.26.854,English_step1,2020.2.3,MacIntel,60,,,,,,,,,,,,,,,,,,left,0.550995,0,3,3,5,1,,,,,,,,,
,,,,,,,stim2/pa+45.wav,5ffdbbc7ccbb0e317390f548,2021-02-24_19h59.26.854,English_step1,2020.2.3,MacIntel,60,,,,,,,,,,,,,,,,,,left,0.581,0,4,4,8,1,,,,,,,,,
,,,,,,,stim2/pa+10.wav,5ffdbbc7ccbb0e317390f548,2021-02-24_19h59.26.854,English_step1,2020.2.3,MacIntel,60,,,,,,,,,,,,,,,,,,left,3.03504,0,5,5,1,1,,,,,,,,,
,,,,,,,stim2/pa+35.wav,5ffdbbc7ccbb0e317390f548,2021-02-24_19h59.26.854,English_step1,2020.2.3,MacIntel,60,,,,,,,,,,,,,,,,,,left,0.752975,0,6,6,6,1,,,,,,,,,
,,,,,,,stim2/pa-05.wav,5ffdbbc7ccbb0e317390f548,2021-02-24_19h59.26.854,English_step1,2020.2.3,MacIntel,60,,,,,,,,,,,,,,,,,,left,1.874465,0,7,7,10,1,,,,,,,,,
,,,,,,,stim2/pa+40.wav,5ffdbbc7ccbb0e317390f548,2021-02-24_19h59.26.854,English_step1,2020.2.3,MacIntel,60,,,,,,,,,,,,,,,,,,left,1.184195,0,8,8,7,1,,,,,,,,,
,,,,,,,stim2/pa-25.wav,5ffdbbc7ccbb0e317390f548,2021-02-24_19h59.26.854,English_step1,2020.2.3,MacIntel,60,,,,,,,,,,,,,,,,,,right,1.133965,0,9,9,14,1,,,,,,,,,
,,,,,,,stim2/pa+15.wav,5ffdbbc7ccbb0e317390f548,2021-02-24_19h59.26.854,English_step1,2020.2.3,MacIntel,60,,,,,,,,,,,,,,,,,,left,1.87018,0,10,10,2,1,,,,,,,,,
,,,,,,,stim2/pa-30.wav,5ffdbbc7ccbb0e317390f548,2021-02-24_19h59.26.854,English_step1,2020.2.3,MacIntel,60,,,,,,,,,,,,,,,,,,right,0.732425,0,11,11,15,1,,,,,,,,,
,,,,,,,stim2/pa+25.wav,5ffdbbc7ccbb0e317390f548,2021-02-24_19h59.26.854,English_step1,2020.2.3,MacIntel,60,,,,,,,,,,,,,,,,,,right,0.744295,0,12,12,4,1,,,,,,,,,
,,,,,,,stim2/pa+50.wav,5ffdbbc7ccbb0e317390f548,2021-02-24_19h59.26.854,English_step1,2020.2.3,MacIntel,60,,,,,,,,,,,,,,,,,,right,0.95321,0,13,13,9,1,,,,,,,,,
,,,,,,,stim2/pa-35.wav,5ffdbbc7ccbb0e317390f548,2021-02-24_19h59.26.854,English_step1,2020.2.3,MacIntel,60,,,,,,,,,,,,,,,,,,right,0.981345,0,14,14,16,1,,,,,,,,,
,,,,,,,stim2/pa-10.wav,5ffdbbc7ccbb0e317390f548,2021-02-24_19h59.26.854,English_step1,2020.2.3,MacIntel,60,,,,,,,,,,,,,,,,,,right,0.884235,0,15,15,11,1,,,,,,,,,
,,,,,,,stim2/pa+20.wav,5ffdbbc7ccbb0e317390f548,2021-02-24_19h59.26.854,English_step1,2020.2.3,MacIntel,60,,,,,,,,,,,,,,,,,,left,0.770575,0,16,16,3,1,,,,,,,,,
,,,,,,,stim2/pa+35.wav,5ffdbbc7ccbb0e317390f548,2021-02-24_19h59.26.854,English_step1,2020.2.3,MacIntel,60,,,,,,,,,,,,,,,,,,left,3.22185,1,0,17,6,1,,,,,,,,,
,,,,,,,stim2/pa+30.wav,5ffdbbc7ccbb0e317390f548,2021-02-24_19h59.26.854,English_step1,2020.2.3,MacIntel,60,,,,,,,,,,,,,,,,,,left,1.962755,1,1,18,5,1,,,,,,,,,
,,,,,,,stim2/pa+25.wav,5ffdbbc7ccbb0e317390f548,2021-02-24_19h59.26.854,English_step1,2020.2.3,MacIntel,60,,,,,,,,,,,,,,,,,,left,1.251255,1,2,19,4,1,,,,,,,,,
,,,,,,,stim2/pa-35.wav,5ffdbbc7ccbb0e317390f548,2021-02-24_19h59.26.854,English_step1,2020.2.3,MacIntel,60,,,,,,,,,,,,,,,,,,right,0.921045,1,3,20,16,1,,,,,,,,,
,,,,,,,stim2/pa-20.wav,5ffdbbc7ccbb0e317390f548,2021-02-24_19h59.26.854,English_step1,2020.2.3,MacIntel,60,,,,,,,,,,,,,,,,,,right,0.73308,1,4,21,13,1,,,,,,,,,
,,,,,,,stim2/pa-05.wav,5ffdbbc7ccbb0e317390f548,2021-02-24_19h59.26.854,English_step1,2020.2.3,MacIntel,60,,,,,,,,,,,,,,,,,,right,0.86273,1,5,22,10,1,,,,,,,,,
,,,,,,,stim2/pa+05.wav,5ffdbbc7ccbb0e317390f548,2021-02-24_19h59.26.854,English_step1,2020.2.3,MacIntel,60,,,,,,,,,,,,,,,,,,left,1.479505,1,6,23,0,1,,,,,,,,,
,,,,,,,stim2/pa+10.wav,5ffdbbc7ccbb0e317390f548,2021-02-24_19h59.26.854,English_step1,2020.2.3,MacIntel,60,,,,,,,,,,,,,,,,,,left,1.56808,1,7,24,1,1,,,,,,,,,
,,,,,,,stim2/pa+50.wav,5ffdbbc7ccbb0e317390f548,2021-02-24_19h59.26.854,English_step1,2020.2.3,MacIntel,60,,,,,,,,,,,,,,,,,,right,0.617975,1,8,25,9,1,,,,,,,,,
,,,,,,,stim2/pa+20.wav,5ffdbbc7ccbb0e317390f548,2021-02-24_19h59.26.854,English_step1,2020.2.3,MacIntel,60,,,,,,,,,,,,,,,,,,left,1.202,1,9,26,3,1,,,,,,,,,
,,,,,,,stim2/pa-30.wav,5ffdbbc7ccbb0e317390f548,2021-02-24_19h59.26.854,English_step1,2020.2.3,MacIntel,60,,,,,,,,,,,,,,,,,,right,0.548975,1,10,27,15,1,,,,,,,,,
,,,,,,,stim2/pa-25.wav,5ffdbbc7ccbb0e317390f548,2021-02-24_19h59.26.854,English_step1,2020.2.3,MacIntel,60,,,,,,,,,,,,,,,,,,right,0.768305,1,11,28,14,1,,,,,,,,,
,,,,,,,stim2/pa+45.wav,5ffdbbc7ccbb0e317390f548,2021-02-24_19h59.26.854,English_step1,2020.2.3,MacIntel,60,,,,,,,,,,,,,,,,,,left,1.622845,1,12,29,8,1,,,,,,,,,
,,,,,,,stim2/pa+15.wav,5ffdbbc7ccbb0e317390f548,2021-02-24_19h59.26.854,English_step1,2020.2.3,MacIntel,60,,,,,,,,,,,,,,,,,,right,0.486015,1,13,30,2,1,,,,,,,,,
,,,,,,,stim2/pa-15.wav,5ffdbbc7ccbb0e317390f548,2021-02-24_19h59.26.854,English_step1,2020.2.3,MacIntel,60,,,,,,,,,,,,,,,,,,right,0.675225,1,14,31,12,1,,,,,,,,,
,,,,,,,stim2/pa-10.wav,5ffdbbc7ccbb0e317390f548,2021-02-24_19h59.26.854,English_step1,2020.2.3,MacIntel,60,,,,,,,,,,,,,,,,,,right,0.69856,1,15,32,11,1,,,,,,,,,
,,,,,,,stim2/pa+40.wav,5ffdbbc7ccbb0e317390f548,2021-02-24_19h59.26.854,English_step1,2020.2.3,MacIntel,60,,,,,,,,,,,,,,,,,,right,0.406525,1,16,33,7,1,,,,,,,,,
,,,,,,,stim2/pa+25.wav,5ffdbbc7ccbb0e317390f548,2021-02-24_19h59.26.854,English_step1,2020.2.3,MacIntel,60,,,,,,,,,,,,,,,,,,left,0.966725,2,0,34,4,1,,,,,,,,,
,,,,,,,stim2/pa+15.wav,5ffdbbc7ccbb0e317390f548,2021-02-24_19h59.26.854,English_step1,2020.2.3,MacIntel,60,,,,,,,,,,,,,,,,,,left,1.260885,2,1,35,2,1,,,,,,,,,
,,,,,,,stim2/pa-30.wav,5ffdbbc7ccbb0e317390f548,2021-02-24_19h59.26.854,English_step1,2020.2.3,MacIntel,60,,,,,,,,,,,,,,,,,,right,0.68988,2,2,36,15,1,,,,,,,,,
,,,,,,,stim2/pa-10.wav,5ffdbbc7ccbb0e317390f548,2021-02-24_19h59.26.854,English_step1,2020.2.3,MacIntel,60,,,,,,,,,,,,,,,,,,right,0.752295,2,3,37,11,1,,,,,,,,,
,,,,,,,stim2/pa+10.wav,5ffdbbc7ccbb0e317390f548,2021-02-24_19h59.26.854,English_step1,2020.2.3,MacIntel,60,,,,,,,,,,,,,,,,,,right,0.537225,2,4,38,1,1,,,,,,,,,
,,,,,,,stim2/pa+30.wav,5ffdbbc7ccbb0e317390f548,2021-02-24_19h59.26.854,English_step1,2020.2.3,MacIntel,60,,,,,,,,,,,,,,,,,,right,0.59519,2,5,39,5,1,,,,,,,,,
,,,,,,,stim2/pa-25.wav,5ffdbbc7ccbb0e317390f548,2021-02-24_19h59.26.854,English_step1,2020.2.3,MacIntel,60,,,,,,,,,,,,,,,,,,right,1.28494,2,6,40,14,1,,,,,,,,,
,,,,,,,stim2/pa+20.wav,5ffdbbc7ccbb0e317390f548,2021-02-24_19h59.26.854,English_step1,2020.2.3,MacIntel,60,,,,,,,,,,,,,,,,,,left,0.8686,2,7,41,3,1,,,,,,,,,
,,,,,,,stim2/pa+50.wav,5ffdbbc7ccbb0e317390f548,2021-02-24_19h59.26.854,English_step1,2020.2.3,MacIntel,60,,,,,,,,,,,,,,,,,,right,0.43238,2,8,42,9,1,,,,,,,,,
,,,,,,,stim2/pa-05.wav,5ffdbbc7ccbb0e317390f548,2021-02-24_19h59.26.854,English_step1,2020.2.3,MacIntel,60,,,,,,,,,,,,,,,,,,left,0.54439,2,9,43,10,1,,,,,,,,,
,,,,,,,stim2/pa+40.wav,5ffdbbc7ccbb0e317390f548,2021-02-24_19h59.26.854,English_step1,2020.2.3,MacIntel,60,,,,,,,,,,,,,,,,,,right,1.495745,2,10,44,7,1,,,,,,,,,
,,,,,,,stim2/pa-35.wav,5ffdbbc7ccbb0e317390f548,2021-02-24_19h59.26.854,English_step1,2020.2.3,MacIntel,60,,,,,,,,,,,,,,,,,,right,1.945085,2,11,45,16,1,,,,,,,,,
,,,,,,,stim2/pa+45.wav,5ffdbbc7ccbb0e317390f548,2021-02-24_19h59.26.854,English_step1,2020.2.3,MacIntel,60,,,,,,,,,,,,,,,,,,right,2.61903,2,12,46,8,1,,,,,,,,,
,,,,,,,stim2/pa-15.wav,5ffdbbc7ccbb0e317390f548,2021-02-24_19h59.26.854,English_step1,2020.2.3,MacIntel,60,,,,,,,,,,,,,,,,,,left,1.733375,2,13,47,12,1,,,,,,,,,
,,,,,,,stim2/pa-20.wav,5ffdbbc7ccbb0e317390f548,2021-02-24_19h59.26.854,English_step1,2020.2.3,MacIntel,60,,,,,,,,,,,,,,,,,,right,24.60677,2,14,48,13,1,,,,,,,,,
,,,,,,,stim2/pa+05.wav,5ffdbbc7ccbb0e317390f548,2021-02-24_19h59.26.854,English_step1,2020.2.3,MacIntel,60,,,,,,,,,,,,,,,,,,right,1.28116,2,15,49,0,1,,,,,,,,,
,,,,,,,stim2/pa+35.wav,5ffdbbc7ccbb0e317390f548,2021-02-24_19h59.26.854,English_step1,2020.2.3,MacIntel,60,,,,,,,,,,,,,,,,,,left,2.069405,2,16,50,6,1,,,,,,,,,
,,,,,,,stim2/pa+15.wav,5ffdbbc7ccbb0e317390f548,2021-02-24_19h59.26.854,English_step1,2020.2.3,MacIntel,60,,,,,,,,,,,,,,,,,,left,1.3374,,,,,,q,1.980775,0,0,0,2,1,,
,,,,,,,stim2/pa+45.wav,5ffdbbc7ccbb0e317390f548,2021-02-24_19h59.26.854,English_step1,2020.2.3,MacIntel,60,,,,,,,,,,,,,,,,,,right,1.76542,,,,,,,,0,1,1,8,1,,
,,,,,,,stim2/pa+40.wav,5ffdbbc7ccbb0e317390f548,2021-02-24_19h59.26.854,English_step1,2020.2.3,MacIntel,60,,,,,,,,,,,,,,,,,,right,1.082465,,,,,,,,0,2,2,7,1,,
,,,,,,,stim2/pa+10.wav,5ffdbbc7ccbb0e317390f548,2021-02-24_19h59.26.854,English_step1,2020.2.3,MacIntel,60,,,,,,,,,,,,,,,,,,left,0.999805,,,,,,,,0,3,3,1,1,,
,,,,,,,stim2/pa-20.wav,5ffdbbc7ccbb0e317390f548,2021-02-24_19h59.26.854,English_step1,2020.2.3,MacIntel,60,,,,,,,,,,,,,,,,,,right,0.855375,,,,,,,,0,4,4,13,1,,
,,,,,,,stim2/pa-25.wav,5ffdbbc7ccbb0e317390f548,2021-02-24_19h59.26.854,English_step1,2020.2.3,MacIntel,60,,,,,,,,,,,,,,,,,,right,0.916685,,,,,,,,0,5,5,14,1,,
,,,,,,,stim2/pa+30.wav,5ffdbbc7ccbb0e317390f548,2021-02-24_19h59.26.854,English_step1,2020.2.3,MacIntel,60,,,,,,,,,,,,,,,,,,left,0.875265,,,,,,,,0,6,6,5,1,,
,,,,,,,stim2/pa-35.wav,5ffdbbc7ccbb0e317390f548,2021-02-24_19h59.26.854,English_step1,2020.2.3,MacIntel,60,,,,,,,,,,,,,,,,,,right,0.958275,,,,,,,,0,7,7,16,1,,
,,,,,,,stim2/pa+20.wav,5ffdbbc7ccbb0e317390f548,2021-02-24_19h59.26.854,English_step1,2020.2.3,MacIntel,60,,,,,,,,,,,,,,,,,,left,0.748935,,,,,,,,0,8,8,3,1,,
,,,,,,,stim2/pa-15.wav,5ffdbbc7ccbb0e317390f548,2021-02-24_19h59.26.854,English_step1,2020.2.3,MacIntel,60,,,,,,,,,,,,,,,,,,right,0.76851,,,,,,,,0,9,9,12,1,,
,,,,,,,stim2/pa+50.wav,5ffdbbc7ccbb0e317390f548,2021-02-24_19h59.26.854,English_step1,2020.2.3,MacIntel,60,,,,,,,,,,,,,,,,,,left,0.88821,,,,,,,,0,10,10,9,1,,
,,,,,,,stim2/pa+25.wav,5ffdbbc7ccbb0e317390f548,2021-02-24_19h59.26.854,English_step1,2020.2.3,MacIntel,60,,,,,,,,,,,,,,,,,,right,0.861895,,,,,,,,0,11,11,4,1,,
,,,,,,,stim2/pa+35.wav,5ffdbbc7ccbb0e317390f548,2021-02-24_19h59.26.854,English_step1,2020.2.3,MacIntel,60,,,,,,,,,,,,,,,,,,left,2.043735,,,,,,,,0,12,12,6,1,,
,,,,,,,stim2/pa+05.wav,5ffdbbc7ccbb0e317390f548,2021-02-24_19h59.26.854,English_step1,2020.2.3,MacIntel,60,,,,,,,,,,,,,,,,,,left,1.27407,,,,,,,,0,13,13,0,1,,
,,,,,,,stim2/pa-05.wav,5ffdbbc7ccbb0e317390f548,2021-02-24_19h59.26.854,English_step1,2020.2.3,MacIntel,60,,,,,,,,,,,,,,,,,,right,0.86478,,,,,,,,0,14,14,10,1,,
,,,,,,,stim2/pa-30.wav,5ffdbbc7ccbb0e317390f548,2021-02-24_19h59.26.854,English_step1,2020.2.3,MacIntel,60,,,,,,,,,,,,,,,,,,right,0.95541,,,,,,,,0,15,15,15,1,,
,,,,,,,stim2/pa-10.wav,5ffdbbc7ccbb0e317390f548,2021-02-24_19h59.26.854,English_step1,2020.2.3,MacIntel,60,,,,,,,,,,,,,,,,,,right,1.006405,,,,,,,,0,16,16,11,1,,
,,,,,,,stim2/pa-35.wav,5ffdbbc7ccbb0e317390f548,2021-02-24_19h59.26.854,English_step1,2020.2.3,MacIntel,60,,,,,,,,,,,,,,,,,,right,0.996235,,,,,,,,1,0,17,16,1,,
,,,,,,,stim2/pa+40.wav,5ffdbbc7ccbb0e317390f548,2021-02-24_19h59.26.854,English_step1,2020.2.3,MacIntel,60,,,,,,,,,,,,,,,,,,left,1.005515,,,,,,,,1,1,18,7,1,,
,,,,,,,stim2/pa+25.wav,5ffdbbc7ccbb0e317390f548,2021-02-24_19h59.26.854,English_step1,2020.2.3,MacIntel,60,,,,,,,,,,,,,,,,,,right,0.816915,,,,,,,,1,2,19,4,1,,
,,,,,,,stim2/pa+45.wav,5ffdbbc7ccbb0e317390f548,2021-02-24_19h59.26.854,English_step1,2020.2.3,MacIntel,60,,,,,,,,,,,,,,,,,,left,0.816785,,,,,,,,1,3,20,8,1,,
,,,,,,,stim2/pa+15.wav,5ffdbbc7ccbb0e317390f548,2021-02-24_19h59.26.854,English_step1,2020.2.3,MacIntel,60,,,,,,,,,,,,,,,,,,right,0.783035,,,,,,,,1,4,21,2,1,,
,,,,,,,stim2/pa-25.wav,5ffdbbc7ccbb0e317390f548,2021-02-24_19h59.26.854,English_step1,2020.2.3,MacIntel,60,,,,,,,,,,,,,,,,,,right,1.049355,,,,,,,,1,5,22,14,1,,
,,,,,,,stim2/pa+20.wav,5ffdbbc7ccbb0e317390f548,2021-02-24_19h59.26.854,English_step1,2020.2.3,MacIntel,60,,,,,,,,,,,,,,,,,,left,0.89995,,,,,,,,1,6,23,3,1,,
,,,,,,,stim2/pa-30.wav,5ffdbbc7ccbb0e317390f548,2021-02-24_19h59.26.854,English_step1,2020.2.3,MacIntel,60,,,,,,,,,,,,,,,,,,right,0.769565,,,,,,,,1,7,24,15,1,,
,,,,,,,stim2/pa+30.wav,5ffdbbc7ccbb0e317390f548,2021-02-24_19h59.26.854,English_step1,2020.2.3,MacIntel,60,,,,,,,,,,,,,,,,,,left,0.777385,,,,,,,,1,8,25,5,1,,
,,,,,,,stim2/pa-20.wav,5ffdbbc7ccbb0e317390f548,2021-02-24_19h59.26.854,English_step1,2020.2.3,MacIntel,60,,,,,,,,,,,,,,,,,,right,0.772565,,,,,,,,1,9,26,13,1,,
,,,,,,,stim2/pa+10.wav,5ffdbbc7ccbb0e317390f548,2021-02-24_19h59.26.854,English_step1,2020.2.3,MacIntel,60,,,,,,,,,,,,,,,,,,left,0.77804,,,,,,,,1,10,27,1,1,,
,,,,,,,stim2/pa+50.wav,5ffdbbc7ccbb0e317390f548,2021-02-24_19h59.26.854,English_step1,2020.2.3,MacIntel,60,,,,,,,,,,,,,,,,,,right,0.7805,,,,,,,,1,11,28,9,1,,
,,,,,,,stim2/pa+05.wav,5ffdbbc7ccbb0e317390f548,2021-02-24_19h59.26.854,English_step1,2020.2.3,MacIntel,60,,,,,,,,,,,,,,,,,,left,0.681515,,,,,,,,1,12,29,0,1,,
,,,,,,,stim2/pa-10.wav,5ffdbbc7ccbb0e317390f548,2021-02-24_19h59.26.854,English_step1,2020.2.3,MacIntel,60,,,,,,,,,,,,,,,,,,right,0.71994,,,,,,,,1,13,30,11,1,,
,,,,,,,stim2/pa-05.wav,5ffdbbc7ccbb0e317390f548,2021-02-24_19h59.26.854,English_step1,2020.2.3,MacIntel,60,,,,,,,,,,,,,,,,,,left,0.68476,,,,,,,,1,14,31,10,1,,
,,,,,,,stim2/pa-15.wav,5ffdbbc7ccbb0e317390f548,2021-02-24_19h59.26.854,English_step1,2020.2.3,MacIntel,60,,,,,,,,,,,,,,,,,,right,1.22407,,,,,,,,1,15,32,12,1,,
,,,,,,,stim2/pa+35.wav,5ffdbbc7ccbb0e317390f548,2021-02-24_19h59.26.854,English_step1,2020.2.3,MacIntel,60,,,,,,,,,,,,,,,,,,left,0.906685,,,,,,,,1,16,33,6,1,,
,,,,,,,,5ffdbbc7ccbb0e317390f548,2021-02-24_19h59.26.854,English_step1,2020.2.3,MacIntel,60,,,,,,,,,,,,,,,,,,,,,,,,,,,,,,,,space,16.07243
