resp.keys,resp.rt,trials.thisRepN,trials.thisTrialN,trials.thisN,trials.thisIndex,trials.ran,stimuli,participant,date,expName,psychopyVersion,OS,frameRate,gotResponse.keys,gotResponse.rt,resp_2.keys,resp_2.rt,trials_2.thisRepN,trials_2.thisTrialN,trials_2.thisN,trials_2.thisIndex,trials_2.ran,key_resp_3.keys,key_resp_3.corr,key_resp_3.rt,trials_4.thisRepN,trials_4.thisTrialN,trials_4.thisN,trials_4.thisIndex,trials_4.ran,resp_3.keys,resp_3.rt,trials_3.thisRepN,trials_3.thisTrialN,trials_3.thisN,trials_3.thisIndex,trials_3.ran,key_resp_2.keys,key_resp_2.rt,trials_5.thisRepN,trials_5.thisTrialN,trials_5.thisN,trials_5.thisIndex,trials_5.ran,key_resp.keys,key_resp.rt
right,13.113645,0,0,0,1,1,stim/VC_11.wav,Miyamín Guzmán,2021-02-24_11h48.08.661,English_step1,2020.2.3,Win32,60,,,,,,,,,,,,,,,,,,,,,,,,,,,,,,,,,
left,10.561005,0,1,1,0,1,stim/VC_01.wav,Miyamín Guzmán,2021-02-24_11h48.08.661,English_step1,2020.2.3,Win32,60,,,,,,,,,,,,,,,,,,,,,,,,,,,,,,,,,
,,,,,,,stim/VC_10.wav,Miyamín Guzmán,2021-02-24_11h48.08.661,English_step1,2020.2.3,Win32,60,space,3.47228,right,8.37362,0,0,0,9,1,,,,,,,,,,,,,,,,,,,,,,,,
,,,,,,,stim/VC_03.wav,Miyamín Guzmán,2021-02-24_11h48.08.661,English_step1,2020.2.3,Win32,60,,,left,1.63189,0,1,1,2,1,,,,,,,,,,,,,,,,,,,,,,,,
,,,,,,,stim/VC_07.wav,Miyamín Guzmán,2021-02-24_11h48.08.661,English_step1,2020.2.3,Win32,60,,,right,2.2849,0,2,2,6,1,,,,,,,,,,,,,,,,,,,,,,,,
,,,,,,,stim/VC_11.wav,Miyamín Guzmán,2021-02-24_11h48.08.661,English_step1,2020.2.3,Win32,60,,,right,0.713665,0,3,3,10,1,,,,,,,,,,,,,,,,,,,,,,,,
,,,,,,,stim/VC_06.wav,Miyamín Guzmán,2021-02-24_11h48.08.661,English_step1,2020.2.3,Win32,60,,,left,0.88806,0,4,4,5,1,,,,,,,,,,,,,,,,,,,,,,,,
,,,,,,,stim/VC_02.wav,Miyamín Guzmán,2021-02-24_11h48.08.661,English_step1,2020.2.3,Win32,60,,,left,0.88145,0,5,5,1,1,,,,,,,,,,,,,,,,,,,,,,,,
,,,,,,,stim/VC_01.wav,Miyamín Guzmán,2021-02-24_11h48.08.661,English_step1,2020.2.3,Win32,60,,,left,0.641715,0,6,6,0,1,,,,,,,,,,,,,,,,,,,,,,,,
,,,,,,,stim/VC_05.wav,Miyamín Guzmán,2021-02-24_11h48.08.661,English_step1,2020.2.3,Win32,60,,,left,0.615845,0,7,7,4,1,,,,,,,,,,,,,,,,,,,,,,,,
,,,,,,,stim/VC_09.wav,Miyamín Guzmán,2021-02-24_11h48.08.661,English_step1,2020.2.3,Win32,60,,,right,0.71494,0,8,8,8,1,,,,,,,,,,,,,,,,,,,,,,,,
,,,,,,,stim/VC_08.wav,Miyamín Guzmán,2021-02-24_11h48.08.661,English_step1,2020.2.3,Win32,60,,,right,0.67092,0,9,9,7,1,,,,,,,,,,,,,,,,,,,,,,,,
,,,,,,,stim/VC_04.wav,Miyamín Guzmán,2021-02-24_11h48.08.661,English_step1,2020.2.3,Win32,60,,,left,0.51634,0,10,10,3,1,,,,,,,,,,,,,,,,,,,,,,,,
,,,,,,,stim/VC_05.wav,Miyamín Guzmán,2021-02-24_11h48.08.661,English_step1,2020.2.3,Win32,60,,,right,0.643505,1,0,11,4,1,,,,,,,,,,,,,,,,,,,,,,,,
,,,,,,,stim/VC_08.wav,Miyamín Guzmán,2021-02-24_11h48.08.661,English_step1,2020.2.3,Win32,60,,,right,1.058135,1,1,12,7,1,,,,,,,,,,,,,,,,,,,,,,,,
,,,,,,,stim/VC_07.wav,Miyamín Guzmán,2021-02-24_11h48.08.661,English_step1,2020.2.3,Win32,60,,,right,1.06549,1,2,13,6,1,,,,,,,,,,,,,,,,,,,,,,,,
,,,,,,,stim/VC_10.wav,Miyamín Guzmán,2021-02-24_11h48.08.661,English_step1,2020.2.3,Win32,60,,,right,0.8684,1,3,14,9,1,,,,,,,,,,,,,,,,,,,,,,,,
,,,,,,,stim/VC_04.wav,Miyamín Guzmán,2021-02-24_11h48.08.661,English_step1,2020.2.3,Win32,60,,,left,0.774625,1,4,15,3,1,,,,,,,,,,,,,,,,,,,,,,,,
,,,,,,,stim/VC_06.wav,Miyamín Guzmán,2021-02-24_11h48.08.661,English_step1,2020.2.3,Win32,60,,,right,0.930995,1,5,16,5,1,,,,,,,,,,,,,,,,,,,,,,,,
,,,,,,,stim/VC_01.wav,Miyamín Guzmán,2021-02-24_11h48.08.661,English_step1,2020.2.3,Win32,60,,,left,0.68197,1,6,17,0,1,,,,,,,,,,,,,,,,,,,,,,,,
,,,,,,,stim/VC_09.wav,Miyamín Guzmán,2021-02-24_11h48.08.661,English_step1,2020.2.3,Win32,60,,,right,0.81461,1,7,18,8,1,,,,,,,,,,,,,,,,,,,,,,,,
,,,,,,,stim/VC_03.wav,Miyamín Guzmán,2021-02-24_11h48.08.661,English_step1,2020.2.3,Win32,60,,,left,0.75855,1,8,19,2,1,,,,,,,,,,,,,,,,,,,,,,,,
,,,,,,,stim/VC_11.wav,Miyamín Guzmán,2021-02-24_11h48.08.661,English_step1,2020.2.3,Win32,60,,,right,0.75509,1,9,20,10,1,,,,,,,,,,,,,,,,,,,,,,,,
,,,,,,,stim/VC_02.wav,Miyamín Guzmán,2021-02-24_11h48.08.661,English_step1,2020.2.3,Win32,60,,,left,0.74899,1,10,21,1,1,,,,,,,,,,,,,,,,,,,,,,,,
,,,,,,,stim/VC_04.wav,Miyamín Guzmán,2021-02-24_11h48.08.661,English_step1,2020.2.3,Win32,60,,,left,0.81862,2,0,22,3,1,,,,,,,,,,,,,,,,,,,,,,,,
,,,,,,,stim/VC_06.wav,Miyamín Guzmán,2021-02-24_11h48.08.661,English_step1,2020.2.3,Win32,60,,,right,0.83541,2,1,23,5,1,,,,,,,,,,,,,,,,,,,,,,,,
,,,,,,,stim/VC_11.wav,Miyamín Guzmán,2021-02-24_11h48.08.661,English_step1,2020.2.3,Win32,60,,,right,0.8176,2,2,24,10,1,,,,,,,,,,,,,,,,,,,,,,,,
,,,,,,,stim/VC_01.wav,Miyamín Guzmán,2021-02-24_11h48.08.661,English_step1,2020.2.3,Win32,60,,,left,0.600705,2,3,25,0,1,,,,,,,,,,,,,,,,,,,,,,,,
,,,,,,,stim/VC_02.wav,Miyamín Guzmán,2021-02-24_11h48.08.661,English_step1,2020.2.3,Win32,60,,,left,1.242685,2,4,26,1,1,,,,,,,,,,,,,,,,,,,,,,,,
,,,,,,,stim/VC_05.wav,Miyamín Guzmán,2021-02-24_11h48.08.661,English_step1,2020.2.3,Win32,60,,,left,0.64996,2,5,27,4,1,,,,,,,,,,,,,,,,,,,,,,,,
,,,,,,,stim/VC_03.wav,Miyamín Guzmán,2021-02-24_11h48.08.661,English_step1,2020.2.3,Win32,60,,,left,0.566775,2,6,28,2,1,,,,,,,,,,,,,,,,,,,,,,,,
,,,,,,,stim/VC_10.wav,Miyamín Guzmán,2021-02-24_11h48.08.661,English_step1,2020.2.3,Win32,60,,,right,0.59181,2,7,29,9,1,,,,,,,,,,,,,,,,,,,,,,,,
,,,,,,,stim/VC_08.wav,Miyamín Guzmán,2021-02-24_11h48.08.661,English_step1,2020.2.3,Win32,60,,,right,0.59586,2,8,30,7,1,,,,,,,,,,,,,,,,,,,,,,,,
,,,,,,,stim/VC_09.wav,Miyamín Guzmán,2021-02-24_11h48.08.661,English_step1,2020.2.3,Win32,60,,,right,0.72956,2,9,31,8,1,,,,,,,,,,,,,,,,,,,,,,,,
,,,,,,,stim/VC_07.wav,Miyamín Guzmán,2021-02-24_11h48.08.661,English_step1,2020.2.3,Win32,60,,,right,0.75235,2,10,32,6,1,,,,,,,,,,,,,,,,,,,,,,,,
,,,,,,,stim/VC_02.wav,Miyamín Guzmán,2021-02-24_11h48.08.661,English_step1,2020.2.3,Win32,60,,,left,1.251815,,,,,,4,0,4.514905,0,0,0,1,1,,,,,,,,,,,,,,,,
,,,,,,,stim/VC_06.wav,Miyamín Guzmán,2021-02-24_11h48.08.661,English_step1,2020.2.3,Win32,60,,,right,1.014155,,,,,,,,,0,1,1,5,1,,,,,,,,,,,,,,,,
,,,,,,,stim/VC_11.wav,Miyamín Guzmán,2021-02-24_11h48.08.661,English_step1,2020.2.3,Win32,60,,,right,0.651225,,,,,,,,,0,2,2,10,1,,,,,,,,,,,,,,,,
,,,,,,,stim/VC_07.wav,Miyamín Guzmán,2021-02-24_11h48.08.661,English_step1,2020.2.3,Win32,60,,,right,0.624095,,,,,,,,,0,3,3,6,1,,,,,,,,,,,,,,,,
,,,,,,,stim/VC_08.wav,Miyamín Guzmán,2021-02-24_11h48.08.661,English_step1,2020.2.3,Win32,60,,,right,0.75727,,,,,,,,,0,4,4,7,1,,,,,,,,,,,,,,,,
,,,,,,,stim/VC_03.wav,Miyamín Guzmán,2021-02-24_11h48.08.661,English_step1,2020.2.3,Win32,60,,,left,0.555415,,,,,,,,,0,5,5,2,1,,,,,,,,,,,,,,,,
,,,,,,,stim/VC_05.wav,Miyamín Guzmán,2021-02-24_11h48.08.661,English_step1,2020.2.3,Win32,60,,,left,1.98412,,,,,,,,,0,6,6,4,1,,,,,,,,,,,,,,,,
,,,,,,,stim/VC_04.wav,Miyamín Guzmán,2021-02-24_11h48.08.661,English_step1,2020.2.3,Win32,60,,,left,0.770485,,,,,,,,,0,7,7,3,1,,,,,,,,,,,,,,,,
,,,,,,,stim/VC_01.wav,Miyamín Guzmán,2021-02-24_11h48.08.661,English_step1,2020.2.3,Win32,60,,,left,0.634455,,,,,,,,,0,8,8,0,1,,,,,,,,,,,,,,,,
,,,,,,,stim/VC_09.wav,Miyamín Guzmán,2021-02-24_11h48.08.661,English_step1,2020.2.3,Win32,60,,,right,0.65901,,,,,,,,,0,9,9,8,1,,,,,,,,,,,,,,,,
,,,,,,,stim/VC_10.wav,Miyamín Guzmán,2021-02-24_11h48.08.661,English_step1,2020.2.3,Win32,60,,,right,0.56745,,,,,,,,,0,10,10,9,1,,,,,,,,,,,,,,,,
,,,,,,,stim/VC_07.wav,Miyamín Guzmán,2021-02-24_11h48.08.661,English_step1,2020.2.3,Win32,60,,,right,0.53698,,,,,,,,,1,0,11,6,1,,,,,,,,,,,,,,,,
,,,,,,,stim/VC_11.wav,Miyamín Guzmán,2021-02-24_11h48.08.661,English_step1,2020.2.3,Win32,60,,,right,0.559065,,,,,,,,,1,1,12,10,1,,,,,,,,,,,,,,,,
,,,,,,,stim/VC_05.wav,Miyamín Guzmán,2021-02-24_11h48.08.661,English_step1,2020.2.3,Win32,60,,,left,0.60349,,,,,,,,,1,2,13,4,1,,,,,,,,,,,,,,,,
,,,,,,,stim/VC_10.wav,Miyamín Guzmán,2021-02-24_11h48.08.661,English_step1,2020.2.3,Win32,60,,,right,0.54039,,,,,,,,,1,3,14,9,1,,,,,,,,,,,,,,,,
,,,,,,,stim/VC_02.wav,Miyamín Guzmán,2021-02-24_11h48.08.661,English_step1,2020.2.3,Win32,60,,,left,0.617395,,,,,,,,,1,4,15,1,1,,,,,,,,,,,,,,,,
,,,,,,,stim/VC_06.wav,Miyamín Guzmán,2021-02-24_11h48.08.661,English_step1,2020.2.3,Win32,60,,,right,0.43506,,,,,,,,,1,5,16,5,1,,,,,,,,,,,,,,,,
,,,,,,,stim/VC_09.wav,Miyamín Guzmán,2021-02-24_11h48.08.661,English_step1,2020.2.3,Win32,60,,,right,0.556595,,,,,,,,,1,6,17,8,1,,,,,,,,,,,,,,,,
,,,,,,,stim/VC_04.wav,Miyamín Guzmán,2021-02-24_11h48.08.661,English_step1,2020.2.3,Win32,60,,,left,0.603515,,,,,,,,,1,7,18,3,1,,,,,,,,,,,,,,,,
,,,,,,,stim/VC_01.wav,Miyamín Guzmán,2021-02-24_11h48.08.661,English_step1,2020.2.3,Win32,60,,,left,0.608475,,,,,,,,,1,8,19,0,1,,,,,,,,,,,,,,,,
,,,,,,,stim/VC_08.wav,Miyamín Guzmán,2021-02-24_11h48.08.661,English_step1,2020.2.3,Win32,60,,,right,0.436685,,,,,,,,,1,9,20,7,1,,,,,,,,,,,,,,,,
,,,,,,,stim/VC_03.wav,Miyamín Guzmán,2021-02-24_11h48.08.661,English_step1,2020.2.3,Win32,60,,,left,0.574615,,,,,,,,,1,10,21,2,1,,,,,,,,,,,,,,,,
,,,,,,,stim2/pa-15.wav,Miyamín Guzmán,2021-02-24_11h48.08.661,English_step1,2020.2.3,Win32,60,,,,,,,,,,,,,,,,,,left,4.04106,0,0,0,12,1,,,,,,,,,
,,,,,,,stim2/pa-05.wav,Miyamín Guzmán,2021-02-24_11h48.08.661,English_step1,2020.2.3,Win32,60,,,,,,,,,,,,,,,,,,left,1.118295,0,1,1,10,1,,,,,,,,,
,,,,,,,stim2/pa+10.wav,Miyamín Guzmán,2021-02-24_11h48.08.661,English_step1,2020.2.3,Win32,60,,,,,,,,,,,,,,,,,,left,0.683685,0,2,2,1,1,,,,,,,,,
,,,,,,,stim2/pa+50.wav,Miyamín Guzmán,2021-02-24_11h48.08.661,English_step1,2020.2.3,Win32,60,,,,,,,,,,,,,,,,,,left,0.994025,0,3,3,9,1,,,,,,,,,
,,,,,,,stim2/pa+05.wav,Miyamín Guzmán,2021-02-24_11h48.08.661,English_step1,2020.2.3,Win32,60,,,,,,,,,,,,,,,,,,left,0.69626,0,4,4,0,1,,,,,,,,,
,,,,,,,stim2/pa+45.wav,Miyamín Guzmán,2021-02-24_11h48.08.661,English_step1,2020.2.3,Win32,60,,,,,,,,,,,,,,,,,,right,0.8588,0,5,5,8,1,,,,,,,,,
,,,,,,,stim2/pa+40.wav,Miyamín Guzmán,2021-02-24_11h48.08.661,English_step1,2020.2.3,Win32,60,,,,,,,,,,,,,,,,,,right,0.71176,0,6,6,7,1,,,,,,,,,
,,,,,,,stim2/pa+15.wav,Miyamín Guzmán,2021-02-24_11h48.08.661,English_step1,2020.2.3,Win32,60,,,,,,,,,,,,,,,,,,left,0.827055,0,7,7,2,1,,,,,,,,,
,,,,,,,stim2/pa+25.wav,Miyamín Guzmán,2021-02-24_11h48.08.661,English_step1,2020.2.3,Win32,60,,,,,,,,,,,,,,,,,,left,0.803355,0,8,8,4,1,,,,,,,,,
,,,,,,,stim2/pa-20.wav,Miyamín Guzmán,2021-02-24_11h48.08.661,English_step1,2020.2.3,Win32,60,,,,,,,,,,,,,,,,,,right,0.43789,0,9,9,13,1,,,,,,,,,
,,,,,,,stim2/pa+20.wav,Miyamín Guzmán,2021-02-24_11h48.08.661,English_step1,2020.2.3,Win32,60,,,,,,,,,,,,,,,,,,left,0.61992,0,10,10,3,1,,,,,,,,,
,,,,,,,stim2/pa-35.wav,Miyamín Guzmán,2021-02-24_11h48.08.661,English_step1,2020.2.3,Win32,60,,,,,,,,,,,,,,,,,,right,0.33604,0,11,11,16,1,,,,,,,,,
,,,,,,,stim2/pa-25.wav,Miyamín Guzmán,2021-02-24_11h48.08.661,English_step1,2020.2.3,Win32,60,,,,,,,,,,,,,,,,,,right,0.59491,0,12,12,14,1,,,,,,,,,
,,,,,,,stim2/pa+30.wav,Miyamín Guzmán,2021-02-24_11h48.08.661,English_step1,2020.2.3,Win32,60,,,,,,,,,,,,,,,,,,right,0.536925,0,13,13,5,1,,,,,,,,,
,,,,,,,stim2/pa-30.wav,Miyamín Guzmán,2021-02-24_11h48.08.661,English_step1,2020.2.3,Win32,60,,,,,,,,,,,,,,,,,,right,0.413665,0,14,14,15,1,,,,,,,,,
,,,,,,,stim2/pa+35.wav,Miyamín Guzmán,2021-02-24_11h48.08.661,English_step1,2020.2.3,Win32,60,,,,,,,,,,,,,,,,,,right,0.57284,0,15,15,6,1,,,,,,,,,
,,,,,,,stim2/pa-10.wav,Miyamín Guzmán,2021-02-24_11h48.08.661,English_step1,2020.2.3,Win32,60,,,,,,,,,,,,,,,,,,left,0.481605,0,16,16,11,1,,,,,,,,,
,,,,,,,stim2/pa-35.wav,Miyamín Guzmán,2021-02-24_11h48.08.661,English_step1,2020.2.3,Win32,60,,,,,,,,,,,,,,,,,,right,0.51976,1,0,17,16,1,,,,,,,,,
,,,,,,,stim2/pa+05.wav,Miyamín Guzmán,2021-02-24_11h48.08.661,English_step1,2020.2.3,Win32,60,,,,,,,,,,,,,,,,,,left,0.3506,1,1,18,0,1,,,,,,,,,
,,,,,,,stim2/pa-05.wav,Miyamín Guzmán,2021-02-24_11h48.08.661,English_step1,2020.2.3,Win32,60,,,,,,,,,,,,,,,,,,right,0.32202,1,2,19,10,1,,,,,,,,,
,,,,,,,stim2/pa+40.wav,Miyamín Guzmán,2021-02-24_11h48.08.661,English_step1,2020.2.3,Win32,60,,,,,,,,,,,,,,,,,,left,0.60725,1,3,20,7,1,,,,,,,,,
,,,,,,,stim2/pa-15.wav,Miyamín Guzmán,2021-02-24_11h48.08.661,English_step1,2020.2.3,Win32,60,,,,,,,,,,,,,,,,,,right,0.33335,1,4,21,12,1,,,,,,,,,
,,,,,,,stim2/pa+35.wav,Miyamín Guzmán,2021-02-24_11h48.08.661,English_step1,2020.2.3,Win32,60,,,,,,,,,,,,,,,,,,left,0.85866,1,5,22,6,1,,,,,,,,,
,,,,,,,stim2/pa-20.wav,Miyamín Guzmán,2021-02-24_11h48.08.661,English_step1,2020.2.3,Win32,60,,,,,,,,,,,,,,,,,,right,0.411885,1,6,23,13,1,,,,,,,,,
,,,,,,,stim2/pa+25.wav,Miyamín Guzmán,2021-02-24_11h48.08.661,English_step1,2020.2.3,Win32,60,,,,,,,,,,,,,,,,,,left,1.224765,1,7,24,4,1,,,,,,,,,
,,,,,,,stim2/pa+50.wav,Miyamín Guzmán,2021-02-24_11h48.08.661,English_step1,2020.2.3,Win32,60,,,,,,,,,,,,,,,,,,right,0.48645,1,8,25,9,1,,,,,,,,,
,,,,,,,stim2/pa+45.wav,Miyamín Guzmán,2021-02-24_11h48.08.661,English_step1,2020.2.3,Win32,60,,,,,,,,,,,,,,,,,,left,0.33731,1,9,26,8,1,,,,,,,,,
,,,,,,,stim2/pa-10.wav,Miyamín Guzmán,2021-02-24_11h48.08.661,English_step1,2020.2.3,Win32,60,,,,,,,,,,,,,,,,,,right,0.32951,1,10,27,11,1,,,,,,,,,
,,,,,,,stim2/pa+10.wav,Miyamín Guzmán,2021-02-24_11h48.08.661,English_step1,2020.2.3,Win32,60,,,,,,,,,,,,,,,,,,left,0.424245,1,11,28,1,1,,,,,,,,,
,,,,,,,stim2/pa+15.wav,Miyamín Guzmán,2021-02-24_11h48.08.661,English_step1,2020.2.3,Win32,60,,,,,,,,,,,,,,,,,,right,0.326665,1,12,29,2,1,,,,,,,,,
,,,,,,,stim2/pa-30.wav,Miyamín Guzmán,2021-02-24_11h48.08.661,English_step1,2020.2.3,Win32,60,,,,,,,,,,,,,,,,,,right,0.71775,1,13,30,15,1,,,,,,,,,
,,,,,,,stim2/pa+30.wav,Miyamín Guzmán,2021-02-24_11h48.08.661,English_step1,2020.2.3,Win32,60,,,,,,,,,,,,,,,,,,right,0.956245,1,14,31,5,1,,,,,,,,,
,,,,,,,stim2/pa+20.wav,Miyamín Guzmán,2021-02-24_11h48.08.661,English_step1,2020.2.3,Win32,60,,,,,,,,,,,,,,,,,,left,0.682235,1,15,32,3,1,,,,,,,,,
,,,,,,,stim2/pa-25.wav,Miyamín Guzmán,2021-02-24_11h48.08.661,English_step1,2020.2.3,Win32,60,,,,,,,,,,,,,,,,,,right,0.789705,1,16,33,14,1,,,,,,,,,
,,,,,,,stim2/pa-20.wav,Miyamín Guzmán,2021-02-24_11h48.08.661,English_step1,2020.2.3,Win32,60,,,,,,,,,,,,,,,,,,right,0.68876,2,0,34,13,1,,,,,,,,,
,,,,,,,stim2/pa+30.wav,Miyamín Guzmán,2021-02-24_11h48.08.661,English_step1,2020.2.3,Win32,60,,,,,,,,,,,,,,,,,,left,0.657995,2,1,35,5,1,,,,,,,,,
,,,,,,,stim2/pa-10.wav,Miyamín Guzmán,2021-02-24_11h48.08.661,English_step1,2020.2.3,Win32,60,,,,,,,,,,,,,,,,,,right,0.659185,2,2,36,11,1,,,,,,,,,
,,,,,,,stim2/pa+15.wav,Miyamín Guzmán,2021-02-24_11h48.08.661,English_step1,2020.2.3,Win32,60,,,,,,,,,,,,,,,,,,left,0.78488,2,3,37,2,1,,,,,,,,,
,,,,,,,stim2/pa-25.wav,Miyamín Guzmán,2021-02-24_11h48.08.661,English_step1,2020.2.3,Win32,60,,,,,,,,,,,,,,,,,,right,0.609775,2,4,38,14,1,,,,,,,,,
,,,,,,,stim2/pa+10.wav,Miyamín Guzmán,2021-02-24_11h48.08.661,English_step1,2020.2.3,Win32,60,,,,,,,,,,,,,,,,,,left,0.47596,2,5,39,1,1,,,,,,,,,
,,,,,,,stim2/pa-35.wav,Miyamín Guzmán,2021-02-24_11h48.08.661,English_step1,2020.2.3,Win32,60,,,,,,,,,,,,,,,,,,right,0.373425,2,6,40,16,1,,,,,,,,,
,,,,,,,stim2/pa-30.wav,Miyamín Guzmán,2021-02-24_11h48.08.661,English_step1,2020.2.3,Win32,60,,,,,,,,,,,,,,,,,,left,0.37083,2,7,41,15,1,,,,,,,,,
,,,,,,,stim2/pa+35.wav,Miyamín Guzmán,2021-02-24_11h48.08.661,English_step1,2020.2.3,Win32,60,,,,,,,,,,,,,,,,,,left,0.833495,2,8,42,6,1,,,,,,,,,
,,,,,,,stim2/pa+50.wav,Miyamín Guzmán,2021-02-24_11h48.08.661,English_step1,2020.2.3,Win32,60,,,,,,,,,,,,,,,,,,right,0.501845,2,9,43,9,1,,,,,,,,,
,,,,,,,stim2/pa-15.wav,Miyamín Guzmán,2021-02-24_11h48.08.661,English_step1,2020.2.3,Win32,60,,,,,,,,,,,,,,,,,,right,0.489055,2,10,44,12,1,,,,,,,,,
,,,,,,,stim2/pa-05.wav,Miyamín Guzmán,2021-02-24_11h48.08.661,English_step1,2020.2.3,Win32,60,,,,,,,,,,,,,,,,,,right,1.0701,2,11,45,10,1,,,,,,,,,
,,,,,,,stim2/pa+40.wav,Miyamín Guzmán,2021-02-24_11h48.08.661,English_step1,2020.2.3,Win32,60,,,,,,,,,,,,,,,,,,left,0.70465,2,12,46,7,1,,,,,,,,,
,,,,,,,stim2/pa+20.wav,Miyamín Guzmán,2021-02-24_11h48.08.661,English_step1,2020.2.3,Win32,60,,,,,,,,,,,,,,,,,,left,1.253245,2,13,47,3,1,,,,,,,,,
,,,,,,,stim2/pa+25.wav,Miyamín Guzmán,2021-02-24_11h48.08.661,English_step1,2020.2.3,Win32,60,,,,,,,,,,,,,,,,,,left,0.69431,2,14,48,4,1,,,,,,,,,
,,,,,,,stim2/pa+45.wav,Miyamín Guzmán,2021-02-24_11h48.08.661,English_step1,2020.2.3,Win32,60,,,,,,,,,,,,,,,,,,left,0.786255,2,15,49,8,1,,,,,,,,,
,,,,,,,stim2/pa+05.wav,Miyamín Guzmán,2021-02-24_11h48.08.661,English_step1,2020.2.3,Win32,60,,,,,,,,,,,,,,,,,,left,0.82133,2,16,50,0,1,,,,,,,,,
,,,,,,,stim2/pa+30.wav,Miyamín Guzmán,2021-02-24_11h48.08.661,English_step1,2020.2.3,Win32,60,,,,,,,,,,,,,,,,,,left,1.36156,,,,,,q,2.456925,0,0,0,5,1,,
,,,,,,,stim2/pa-05.wav,Miyamín Guzmán,2021-02-24_11h48.08.661,English_step1,2020.2.3,Win32,60,,,,,,,,,,,,,,,,,,left,0.42946,,,,,,,,0,1,1,10,1,,
,,,,,,,stim2/pa-30.wav,Miyamín Guzmán,2021-02-24_11h48.08.661,English_step1,2020.2.3,Win32,60,,,,,,,,,,,,,,,,,,right,0.72313,,,,,,,,0,2,2,15,1,,
,,,,,,,stim2/pa+15.wav,Miyamín Guzmán,2021-02-24_11h48.08.661,English_step1,2020.2.3,Win32,60,,,,,,,,,,,,,,,,,,left,0.580795,,,,,,,,0,3,3,2,1,,
,,,,,,,stim2/pa-35.wav,Miyamín Guzmán,2021-02-24_11h48.08.661,English_step1,2020.2.3,Win32,60,,,,,,,,,,,,,,,,,,right,0.3828,,,,,,,,0,4,4,16,1,,
,,,,,,,stim2/pa+10.wav,Miyamín Guzmán,2021-02-24_11h48.08.661,English_step1,2020.2.3,Win32,60,,,,,,,,,,,,,,,,,,left,0.523765,,,,,,,,0,5,5,1,1,,
,,,,,,,stim2/pa+50.wav,Miyamín Guzmán,2021-02-24_11h48.08.661,English_step1,2020.2.3,Win32,60,,,,,,,,,,,,,,,,,,right,0.41841,,,,,,,,0,6,6,9,1,,
,,,,,,,stim2/pa-20.wav,Miyamín Guzmán,2021-02-24_11h48.08.661,English_step1,2020.2.3,Win32,60,,,,,,,,,,,,,,,,,,left,0.35207,,,,,,,,0,7,7,13,1,,
,,,,,,,stim2/pa+45.wav,Miyamín Guzmán,2021-02-24_11h48.08.661,English_step1,2020.2.3,Win32,60,,,,,,,,,,,,,,,,,,left,0.58818,,,,,,,,0,8,8,8,1,,
,,,,,,,stim2/pa+40.wav,Miyamín Guzmán,2021-02-24_11h48.08.661,English_step1,2020.2.3,Win32,60,,,,,,,,,,,,,,,,,,left,0.56824,,,,,,,,0,9,9,7,1,,
,,,,,,,stim2/pa+20.wav,Miyamín Guzmán,2021-02-24_11h48.08.661,English_step1,2020.2.3,Win32,60,,,,,,,,,,,,,,,,,,left,0.48935,,,,,,,,0,10,10,3,1,,
,,,,,,,stim2/pa-15.wav,Miyamín Guzmán,2021-02-24_11h48.08.661,English_step1,2020.2.3,Win32,60,,,,,,,,,,,,,,,,,,left,0.382475,,,,,,,,0,11,11,12,1,,
,,,,,,,stim2/pa+05.wav,Miyamín Guzmán,2021-02-24_11h48.08.661,English_step1,2020.2.3,Win32,60,,,,,,,,,,,,,,,,,,left,0.766935,,,,,,,,0,12,12,0,1,,
,,,,,,,stim2/pa-25.wav,Miyamín Guzmán,2021-02-24_11h48.08.661,English_step1,2020.2.3,Win32,60,,,,,,,,,,,,,,,,,,right,0.733985,,,,,,,,0,13,13,14,1,,
,,,,,,,stim2/pa+25.wav,Miyamín Guzmán,2021-02-24_11h48.08.661,English_step1,2020.2.3,Win32,60,,,,,,,,,,,,,,,,,,left,0.638725,,,,,,,,0,14,14,4,1,,
,,,,,,,stim2/pa-10.wav,Miyamín Guzmán,2021-02-24_11h48.08.661,English_step1,2020.2.3,Win32,60,,,,,,,,,,,,,,,,,,right,0.47217,,,,,,,,0,15,15,11,1,,
,,,,,,,stim2/pa+35.wav,Miyamín Guzmán,2021-02-24_11h48.08.661,English_step1,2020.2.3,Win32,60,,,,,,,,,,,,,,,,,,left,0.38245,,,,,,,,0,16,16,6,1,,
,,,,,,,stim2/pa+05.wav,Miyamín Guzmán,2021-02-24_11h48.08.661,English_step1,2020.2.3,Win32,60,,,,,,,,,,,,,,,,,,right,0.510625,,,,,,,,1,0,17,0,1,,
,,,,,,,stim2/pa+30.wav,Miyamín Guzmán,2021-02-24_11h48.08.661,English_step1,2020.2.3,Win32,60,,,,,,,,,,,,,,,,,,left,0.381715,,,,,,,,1,1,18,5,1,,
,,,,,,,stim2/pa+40.wav,Miyamín Guzmán,2021-02-24_11h48.08.661,English_step1,2020.2.3,Win32,60,,,,,,,,,,,,,,,,,,right,0.61025,,,,,,,,1,2,19,7,1,,
,,,,,,,stim2/pa-25.wav,Miyamín Guzmán,2021-02-24_11h48.08.661,English_step1,2020.2.3,Win32,60,,,,,,,,,,,,,,,,,,right,0.63535,,,,,,,,1,3,20,14,1,,
,,,,,,,stim2/pa-15.wav,Miyamín Guzmán,2021-02-24_11h48.08.661,English_step1,2020.2.3,Win32,60,,,,,,,,,,,,,,,,,,right,0.49881,,,,,,,,1,4,21,12,1,,
,,,,,,,stim2/pa-30.wav,Miyamín Guzmán,2021-02-24_11h48.08.661,English_step1,2020.2.3,Win32,60,,,,,,,,,,,,,,,,,,right,0.50461,,,,,,,,1,5,22,15,1,,
,,,,,,,stim2/pa+45.wav,Miyamín Guzmán,2021-02-24_11h48.08.661,English_step1,2020.2.3,Win32,60,,,,,,,,,,,,,,,,,,right,0.58131,,,,,,,,1,6,23,8,1,,
,,,,,,,stim2/pa+15.wav,Miyamín Guzmán,2021-02-24_11h48.08.661,English_step1,2020.2.3,Win32,60,,,,,,,,,,,,,,,,,,left,0.461795,,,,,,,,1,7,24,2,1,,
,,,,,,,stim2/pa-10.wav,Miyamín Guzmán,2021-02-24_11h48.08.661,English_step1,2020.2.3,Win32,60,,,,,,,,,,,,,,,,,,right,0.657145,,,,,,,,1,8,25,11,1,,
,,,,,,,stim2/pa+35.wav,Miyamín Guzmán,2021-02-24_11h48.08.661,English_step1,2020.2.3,Win32,60,,,,,,,,,,,,,,,,,,right,0.74722,,,,,,,,1,9,26,6,1,,
,,,,,,,stim2/pa-35.wav,Miyamín Guzmán,2021-02-24_11h48.08.661,English_step1,2020.2.3,Win32,60,,,,,,,,,,,,,,,,,,right,0.55975,,,,,,,,1,10,27,16,1,,
,,,,,,,stim2/pa-05.wav,Miyamín Guzmán,2021-02-24_11h48.08.661,English_step1,2020.2.3,Win32,60,,,,,,,,,,,,,,,,,,right,0.510245,,,,,,,,1,11,28,10,1,,
,,,,,,,stim2/pa+10.wav,Miyamín Guzmán,2021-02-24_11h48.08.661,English_step1,2020.2.3,Win32,60,,,,,,,,,,,,,,,,,,left,0.805765,,,,,,,,1,12,29,1,1,,
,,,,,,,stim2/pa+25.wav,Miyamín Guzmán,2021-02-24_11h48.08.661,English_step1,2020.2.3,Win32,60,,,,,,,,,,,,,,,,,,right,0.38249,,,,,,,,1,13,30,4,1,,
,,,,,,,stim2/pa+20.wav,Miyamín Guzmán,2021-02-24_11h48.08.661,English_step1,2020.2.3,Win32,60,,,,,,,,,,,,,,,,,,left,0.92111,,,,,,,,1,14,31,3,1,,
,,,,,,,stim2/pa-20.wav,Miyamín Guzmán,2021-02-24_11h48.08.661,English_step1,2020.2.3,Win32,60,,,,,,,,,,,,,,,,,,right,0.349975,,,,,,,,1,15,32,13,1,,
,,,,,,,stim2/pa+50.wav,Miyamín Guzmán,2021-02-24_11h48.08.661,English_step1,2020.2.3,Win32,60,,,,,,,,,,,,,,,,,,left,0.43942,,,,,,,,1,16,33,9,1,,
,,,,,,,,Miyamín Guzmán,2021-02-24_11h48.08.661,English_step1,2020.2.3,Win32,60,,,,,,,,,,,,,,,,,,,,,,,,,,,,,,,,space,38.41831
