resp.keys,resp.rt,trials.thisRepN,trials.thisTrialN,trials.thisN,trials.thisIndex,trials.ran,stimuli,participant,date,expName,psychopyVersion,OS,frameRate,gotResponse.keys,gotResponse.rt,resp_2.keys,resp_2.rt,trials_2.thisRepN,trials_2.thisTrialN,trials_2.thisN,trials_2.thisIndex,trials_2.ran,key_resp_3.keys,key_resp_3.corr,key_resp_3.rt,trials_4.thisRepN,trials_4.thisTrialN,trials_4.thisN,trials_4.thisIndex,trials_4.ran,resp_3.keys,resp_3.rt,trials_3.thisRepN,trials_3.thisTrialN,trials_3.thisN,trials_3.thisIndex,trials_3.ran,key_resp_2.keys,key_resp_2.rt,trials_5.thisRepN,trials_5.thisTrialN,trials_5.thisN,trials_5.thisIndex,trials_5.ran,key_resp.keys,key_resp.rt
right,11.610505,0,0,0,1,1,stim/VC_11.wav,5fc9b1252395584af6debd51,2021-01-20_01h03.07.236,English_step1,2020.2.3,Win32,60,,,,,,,,,,,,,,,,,,,,,,,,,,,,,,,,,
left,2.263645,0,1,1,0,1,stim/VC_01.wav,5fc9b1252395584af6debd51,2021-01-20_01h03.07.236,English_step1,2020.2.3,Win32,60,,,,,,,,,,,,,,,,,,,,,,,,,,,,,,,,,
,,,,,,,stim/VC_04.wav,5fc9b1252395584af6debd51,2021-01-20_01h03.07.236,English_step1,2020.2.3,Win32,60,space,8.836775,left,1.104925,0,0,0,3,1,,,,,,,,,,,,,,,,,,,,,,,,
,,,,,,,stim/VC_11.wav,5fc9b1252395584af6debd51,2021-01-20_01h03.07.236,English_step1,2020.2.3,Win32,60,,,right,1.659215,0,1,1,10,1,,,,,,,,,,,,,,,,,,,,,,,,
,,,,,,,stim/VC_08.wav,5fc9b1252395584af6debd51,2021-01-20_01h03.07.236,English_step1,2020.2.3,Win32,60,,,left,1.221145,0,2,2,7,1,,,,,,,,,,,,,,,,,,,,,,,,
,,,,,,,stim/VC_03.wav,5fc9b1252395584af6debd51,2021-01-20_01h03.07.236,English_step1,2020.2.3,Win32,60,,,left,1.17467,0,3,3,2,1,,,,,,,,,,,,,,,,,,,,,,,,
,,,,,,,stim/VC_06.wav,5fc9b1252395584af6debd51,2021-01-20_01h03.07.236,English_step1,2020.2.3,Win32,60,,,left,1.044675,0,4,4,5,1,,,,,,,,,,,,,,,,,,,,,,,,
,,,,,,,stim/VC_02.wav,5fc9b1252395584af6debd51,2021-01-20_01h03.07.236,English_step1,2020.2.3,Win32,60,,,left,0.92312,0,5,5,1,1,,,,,,,,,,,,,,,,,,,,,,,,
,,,,,,,stim/VC_07.wav,5fc9b1252395584af6debd51,2021-01-20_01h03.07.236,English_step1,2020.2.3,Win32,60,,,right,0.728935,0,6,6,6,1,,,,,,,,,,,,,,,,,,,,,,,,
,,,,,,,stim/VC_05.wav,5fc9b1252395584af6debd51,2021-01-20_01h03.07.236,English_step1,2020.2.3,Win32,60,,,left,0.800495,0,7,7,4,1,,,,,,,,,,,,,,,,,,,,,,,,
,,,,,,,stim/VC_09.wav,5fc9b1252395584af6debd51,2021-01-20_01h03.07.236,English_step1,2020.2.3,Win32,60,,,right,0.75524,0,8,8,8,1,,,,,,,,,,,,,,,,,,,,,,,,
,,,,,,,stim/VC_10.wav,5fc9b1252395584af6debd51,2021-01-20_01h03.07.236,English_step1,2020.2.3,Win32,60,,,right,0.919445,0,9,9,9,1,,,,,,,,,,,,,,,,,,,,,,,,
,,,,,,,stim/VC_01.wav,5fc9b1252395584af6debd51,2021-01-20_01h03.07.236,English_step1,2020.2.3,Win32,60,,,left,0.78911,0,10,10,0,1,,,,,,,,,,,,,,,,,,,,,,,,
,,,,,,,stim/VC_04.wav,5fc9b1252395584af6debd51,2021-01-20_01h03.07.236,English_step1,2020.2.3,Win32,60,,,right,1.94598,1,0,11,3,1,,,,,,,,,,,,,,,,,,,,,,,,
,,,,,,,stim/VC_05.wav,5fc9b1252395584af6debd51,2021-01-20_01h03.07.236,English_step1,2020.2.3,Win32,60,,,right,0.917365,1,1,12,4,1,,,,,,,,,,,,,,,,,,,,,,,,
,,,,,,,stim/VC_10.wav,5fc9b1252395584af6debd51,2021-01-20_01h03.07.236,English_step1,2020.2.3,Win32,60,,,right,0.70058,1,2,13,9,1,,,,,,,,,,,,,,,,,,,,,,,,
,,,,,,,stim/VC_02.wav,5fc9b1252395584af6debd51,2021-01-20_01h03.07.236,English_step1,2020.2.3,Win32,60,,,left,0.962365,1,3,14,1,1,,,,,,,,,,,,,,,,,,,,,,,,
,,,,,,,stim/VC_07.wav,5fc9b1252395584af6debd51,2021-01-20_01h03.07.236,English_step1,2020.2.3,Win32,60,,,left,2.91099,1,4,15,6,1,,,,,,,,,,,,,,,,,,,,,,,,
,,,,,,,stim/VC_08.wav,5fc9b1252395584af6debd51,2021-01-20_01h03.07.236,English_step1,2020.2.3,Win32,60,,,right,1.045635,1,5,16,7,1,,,,,,,,,,,,,,,,,,,,,,,,
,,,,,,,stim/VC_11.wav,5fc9b1252395584af6debd51,2021-01-20_01h03.07.236,English_step1,2020.2.3,Win32,60,,,right,1.133255,1,6,17,10,1,,,,,,,,,,,,,,,,,,,,,,,,
,,,,,,,stim/VC_03.wav,5fc9b1252395584af6debd51,2021-01-20_01h03.07.236,English_step1,2020.2.3,Win32,60,,,left,0.91721,1,7,18,2,1,,,,,,,,,,,,,,,,,,,,,,,,
,,,,,,,stim/VC_06.wav,5fc9b1252395584af6debd51,2021-01-20_01h03.07.236,English_step1,2020.2.3,Win32,60,,,left,1.513685,1,8,19,5,1,,,,,,,,,,,,,,,,,,,,,,,,
,,,,,,,stim/VC_09.wav,5fc9b1252395584af6debd51,2021-01-20_01h03.07.236,English_step1,2020.2.3,Win32,60,,,right,0.68058,1,9,20,8,1,,,,,,,,,,,,,,,,,,,,,,,,
,,,,,,,stim/VC_01.wav,5fc9b1252395584af6debd51,2021-01-20_01h03.07.236,English_step1,2020.2.3,Win32,60,,,left,0.889005,1,10,21,0,1,,,,,,,,,,,,,,,,,,,,,,,,
,,,,,,,stim/VC_02.wav,5fc9b1252395584af6debd51,2021-01-20_01h03.07.236,English_step1,2020.2.3,Win32,60,,,left,1.06431,2,0,22,1,1,,,,,,,,,,,,,,,,,,,,,,,,
,,,,,,,stim/VC_09.wav,5fc9b1252395584af6debd51,2021-01-20_01h03.07.236,English_step1,2020.2.3,Win32,60,,,right,2.153425,2,1,23,8,1,,,,,,,,,,,,,,,,,,,,,,,,
,,,,,,,stim/VC_06.wav,5fc9b1252395584af6debd51,2021-01-20_01h03.07.236,English_step1,2020.2.3,Win32,60,,,left,0.71724,2,2,24,5,1,,,,,,,,,,,,,,,,,,,,,,,,
,,,,,,,stim/VC_05.wav,5fc9b1252395584af6debd51,2021-01-20_01h03.07.236,English_step1,2020.2.3,Win32,60,,,left,2.026405,2,3,25,4,1,,,,,,,,,,,,,,,,,,,,,,,,
,,,,,,,stim/VC_07.wav,5fc9b1252395584af6debd51,2021-01-20_01h03.07.236,English_step1,2020.2.3,Win32,60,,,left,2.348785,2,4,26,6,1,,,,,,,,,,,,,,,,,,,,,,,,
,,,,,,,stim/VC_03.wav,5fc9b1252395584af6debd51,2021-01-20_01h03.07.236,English_step1,2020.2.3,Win32,60,,,left,0.922185,2,5,27,2,1,,,,,,,,,,,,,,,,,,,,,,,,
,,,,,,,stim/VC_08.wav,5fc9b1252395584af6debd51,2021-01-20_01h03.07.236,English_step1,2020.2.3,Win32,60,,,right,1.809385,2,6,28,7,1,,,,,,,,,,,,,,,,,,,,,,,,
,,,,,,,stim/VC_11.wav,5fc9b1252395584af6debd51,2021-01-20_01h03.07.236,English_step1,2020.2.3,Win32,60,,,right,0.64258,2,7,29,10,1,,,,,,,,,,,,,,,,,,,,,,,,
,,,,,,,stim/VC_10.wav,5fc9b1252395584af6debd51,2021-01-20_01h03.07.236,English_step1,2020.2.3,Win32,60,,,right,1.027185,2,8,30,9,1,,,,,,,,,,,,,,,,,,,,,,,,
,,,,,,,stim/VC_04.wav,5fc9b1252395584af6debd51,2021-01-20_01h03.07.236,English_step1,2020.2.3,Win32,60,,,left,0.637765,2,9,31,3,1,,,,,,,,,,,,,,,,,,,,,,,,
,,,,,,,stim/VC_01.wav,5fc9b1252395584af6debd51,2021-01-20_01h03.07.236,English_step1,2020.2.3,Win32,60,,,left,0.591475,2,10,32,0,1,,,,,,,,,,,,,,,,,,,,,,,,
,,,,,,,stim/VC_11.wav,5fc9b1252395584af6debd51,2021-01-20_01h03.07.236,English_step1,2020.2.3,Win32,60,,,right,1.81071,,,,,,4,0,8.973295,0,0,0,10,1,,,,,,,,,,,,,,,,
,,,,,,,stim/VC_10.wav,5fc9b1252395584af6debd51,2021-01-20_01h03.07.236,English_step1,2020.2.3,Win32,60,,,right,1.35784,,,,,,,,,0,1,1,9,1,,,,,,,,,,,,,,,,
,,,,,,,stim/VC_06.wav,5fc9b1252395584af6debd51,2021-01-20_01h03.07.236,English_step1,2020.2.3,Win32,60,,,right,2.698365,,,,,,,,,0,2,2,5,1,,,,,,,,,,,,,,,,
,,,,,,,stim/VC_02.wav,5fc9b1252395584af6debd51,2021-01-20_01h03.07.236,English_step1,2020.2.3,Win32,60,,,left,0.668455,,,,,,,,,0,3,3,1,1,,,,,,,,,,,,,,,,
,,,,,,,stim/VC_08.wav,5fc9b1252395584af6debd51,2021-01-20_01h03.07.236,English_step1,2020.2.3,Win32,60,,,left,1.17743,,,,,,,,,0,4,4,7,1,,,,,,,,,,,,,,,,
,,,,,,,stim/VC_05.wav,5fc9b1252395584af6debd51,2021-01-20_01h03.07.236,English_step1,2020.2.3,Win32,60,,,left,0.95039,,,,,,,,,0,5,5,4,1,,,,,,,,,,,,,,,,
,,,,,,,stim/VC_07.wav,5fc9b1252395584af6debd51,2021-01-20_01h03.07.236,English_step1,2020.2.3,Win32,60,,,left,0.842025,,,,,,,,,0,6,6,6,1,,,,,,,,,,,,,,,,
,,,,,,,stim/VC_03.wav,5fc9b1252395584af6debd51,2021-01-20_01h03.07.236,English_step1,2020.2.3,Win32,60,,,left,0.61007,,,,,,,,,0,7,7,2,1,,,,,,,,,,,,,,,,
,,,,,,,stim/VC_01.wav,5fc9b1252395584af6debd51,2021-01-20_01h03.07.236,English_step1,2020.2.3,Win32,60,,,left,0.692965,,,,,,,,,0,8,8,0,1,,,,,,,,,,,,,,,,
,,,,,,,stim/VC_09.wav,5fc9b1252395584af6debd51,2021-01-20_01h03.07.236,English_step1,2020.2.3,Win32,60,,,right,1.668345,,,,,,,,,0,9,9,8,1,,,,,,,,,,,,,,,,
,,,,,,,stim/VC_04.wav,5fc9b1252395584af6debd51,2021-01-20_01h03.07.236,English_step1,2020.2.3,Win32,60,,,left,0.79839,,,,,,,,,0,10,10,3,1,,,,,,,,,,,,,,,,
,,,,,,,stim/VC_03.wav,5fc9b1252395584af6debd51,2021-01-20_01h03.07.236,English_step1,2020.2.3,Win32,60,,,left,1.239495,,,,,,,,,1,0,11,2,1,,,,,,,,,,,,,,,,
,,,,,,,stim/VC_01.wav,5fc9b1252395584af6debd51,2021-01-20_01h03.07.236,English_step1,2020.2.3,Win32,60,,,left,0.92131,,,,,,,,,1,1,12,0,1,,,,,,,,,,,,,,,,
,,,,,,,stim/VC_05.wav,5fc9b1252395584af6debd51,2021-01-20_01h03.07.236,English_step1,2020.2.3,Win32,60,,,left,1.02265,,,,,,,,,1,2,13,4,1,,,,,,,,,,,,,,,,
,,,,,,,stim/VC_07.wav,5fc9b1252395584af6debd51,2021-01-20_01h03.07.236,English_step1,2020.2.3,Win32,60,,,left,1.041005,,,,,,,,,1,3,14,6,1,,,,,,,,,,,,,,,,
,,,,,,,stim/VC_10.wav,5fc9b1252395584af6debd51,2021-01-20_01h03.07.236,English_step1,2020.2.3,Win32,60,,,right,0.86678,,,,,,,,,1,4,15,9,1,,,,,,,,,,,,,,,,
,,,,,,,stim/VC_06.wav,5fc9b1252395584af6debd51,2021-01-20_01h03.07.236,English_step1,2020.2.3,Win32,60,,,left,0.928985,,,,,,,,,1,5,16,5,1,,,,,,,,,,,,,,,,
,,,,,,,stim/VC_04.wav,5fc9b1252395584af6debd51,2021-01-20_01h03.07.236,English_step1,2020.2.3,Win32,60,,,left,0.78649,,,,,,,,,1,6,17,3,1,,,,,,,,,,,,,,,,
,,,,,,,stim/VC_08.wav,5fc9b1252395584af6debd51,2021-01-20_01h03.07.236,English_step1,2020.2.3,Win32,60,,,right,0.668255,,,,,,,,,1,7,18,7,1,,,,,,,,,,,,,,,,
,,,,,,,stim/VC_09.wav,5fc9b1252395584af6debd51,2021-01-20_01h03.07.236,English_step1,2020.2.3,Win32,60,,,right,0.63574,,,,,,,,,1,8,19,8,1,,,,,,,,,,,,,,,,
,,,,,,,stim/VC_02.wav,5fc9b1252395584af6debd51,2021-01-20_01h03.07.236,English_step1,2020.2.3,Win32,60,,,left,0.629805,,,,,,,,,1,9,20,1,1,,,,,,,,,,,,,,,,
,,,,,,,stim/VC_11.wav,5fc9b1252395584af6debd51,2021-01-20_01h03.07.236,English_step1,2020.2.3,Win32,60,,,right,0.95954,,,,,,,,,1,10,21,10,1,,,,,,,,,,,,,,,,
,,,,,,,stim2/pa+30.wav,5fc9b1252395584af6debd51,2021-01-20_01h03.07.236,English_step1,2020.2.3,Win32,60,,,,,,,,,,,,,,,,,,right,6.543685,0,0,0,5,1,,,,,,,,,
,,,,,,,stim2/pa-25.wav,5fc9b1252395584af6debd51,2021-01-20_01h03.07.236,English_step1,2020.2.3,Win32,60,,,,,,,,,,,,,,,,,,right,1.07185,0,1,1,14,1,,,,,,,,,
,,,,,,,stim2/pa-05.wav,5fc9b1252395584af6debd51,2021-01-20_01h03.07.236,English_step1,2020.2.3,Win32,60,,,,,,,,,,,,,,,,,,right,0.769245,0,2,2,10,1,,,,,,,,,
,,,,,,,stim2/pa-35.wav,5fc9b1252395584af6debd51,2021-01-20_01h03.07.236,English_step1,2020.2.3,Win32,60,,,,,,,,,,,,,,,,,,right,0.66163,0,3,3,16,1,,,,,,,,,
,,,,,,,stim2/pa+40.wav,5fc9b1252395584af6debd51,2021-01-20_01h03.07.236,English_step1,2020.2.3,Win32,60,,,,,,,,,,,,,,,,,,left,0.62995,0,4,4,7,1,,,,,,,,,
,,,,,,,stim2/pa+05.wav,5fc9b1252395584af6debd51,2021-01-20_01h03.07.236,English_step1,2020.2.3,Win32,60,,,,,,,,,,,,,,,,,,left,1.087655,0,5,5,0,1,,,,,,,,,
,,,,,,,stim2/pa+20.wav,5fc9b1252395584af6debd51,2021-01-20_01h03.07.236,English_step1,2020.2.3,Win32,60,,,,,,,,,,,,,,,,,,left,0.76875,0,6,6,3,1,,,,,,,,,
,,,,,,,stim2/pa+45.wav,5fc9b1252395584af6debd51,2021-01-20_01h03.07.236,English_step1,2020.2.3,Win32,60,,,,,,,,,,,,,,,,,,left,1.178255,0,7,7,8,1,,,,,,,,,
,,,,,,,stim2/pa-30.wav,5fc9b1252395584af6debd51,2021-01-20_01h03.07.236,English_step1,2020.2.3,Win32,60,,,,,,,,,,,,,,,,,,right,1.006535,0,8,8,15,1,,,,,,,,,
,,,,,,,stim2/pa+10.wav,5fc9b1252395584af6debd51,2021-01-20_01h03.07.236,English_step1,2020.2.3,Win32,60,,,,,,,,,,,,,,,,,,left,0.65745,0,9,9,1,1,,,,,,,,,
,,,,,,,stim2/pa-15.wav,5fc9b1252395584af6debd51,2021-01-20_01h03.07.236,English_step1,2020.2.3,Win32,60,,,,,,,,,,,,,,,,,,left,1.48988,0,10,10,12,1,,,,,,,,,
,,,,,,,stim2/pa+25.wav,5fc9b1252395584af6debd51,2021-01-20_01h03.07.236,English_step1,2020.2.3,Win32,60,,,,,,,,,,,,,,,,,,left,0.81779,0,11,11,4,1,,,,,,,,,
,,,,,,,stim2/pa+50.wav,5fc9b1252395584af6debd51,2021-01-20_01h03.07.236,English_step1,2020.2.3,Win32,60,,,,,,,,,,,,,,,,,,left,1.019075,0,12,12,9,1,,,,,,,,,
,,,,,,,stim2/pa+15.wav,5fc9b1252395584af6debd51,2021-01-20_01h03.07.236,English_step1,2020.2.3,Win32,60,,,,,,,,,,,,,,,,,,left,0.87088,0,13,13,2,1,,,,,,,,,
,,,,,,,stim2/pa+35.wav,5fc9b1252395584af6debd51,2021-01-20_01h03.07.236,English_step1,2020.2.3,Win32,60,,,,,,,,,,,,,,,,,,left,0.84565,0,14,14,6,1,,,,,,,,,
,,,,,,,stim2/pa-10.wav,5fc9b1252395584af6debd51,2021-01-20_01h03.07.236,English_step1,2020.2.3,Win32,60,,,,,,,,,,,,,,,,,,left,0.80618,0,15,15,11,1,,,,,,,,,
,,,,,,,stim2/pa-20.wav,5fc9b1252395584af6debd51,2021-01-20_01h03.07.236,English_step1,2020.2.3,Win32,60,,,,,,,,,,,,,,,,,,left,0.84924,0,16,16,13,1,,,,,,,,,
,,,,,,,stim2/pa+45.wav,5fc9b1252395584af6debd51,2021-01-20_01h03.07.236,English_step1,2020.2.3,Win32,60,,,,,,,,,,,,,,,,,,left,0.78583,1,0,17,8,1,,,,,,,,,
,,,,,,,stim2/pa-15.wav,5fc9b1252395584af6debd51,2021-01-20_01h03.07.236,English_step1,2020.2.3,Win32,60,,,,,,,,,,,,,,,,,,left,1.16607,1,1,18,12,1,,,,,,,,,
,,,,,,,stim2/pa-35.wav,5fc9b1252395584af6debd51,2021-01-20_01h03.07.236,English_step1,2020.2.3,Win32,60,,,,,,,,,,,,,,,,,,right,0.5863,1,2,19,16,1,,,,,,,,,
,,,,,,,stim2/pa-25.wav,5fc9b1252395584af6debd51,2021-01-20_01h03.07.236,English_step1,2020.2.3,Win32,60,,,,,,,,,,,,,,,,,,right,0.645435,1,3,20,14,1,,,,,,,,,
,,,,,,,stim2/pa+20.wav,5fc9b1252395584af6debd51,2021-01-20_01h03.07.236,English_step1,2020.2.3,Win32,60,,,,,,,,,,,,,,,,,,right,0.93544,1,4,21,3,1,,,,,,,,,
,,,,,,,stim2/pa-05.wav,5fc9b1252395584af6debd51,2021-01-20_01h03.07.236,English_step1,2020.2.3,Win32,60,,,,,,,,,,,,,,,,,,left,0.787515,1,5,22,10,1,,,,,,,,,
,,,,,,,stim2/pa+50.wav,5fc9b1252395584af6debd51,2021-01-20_01h03.07.236,English_step1,2020.2.3,Win32,60,,,,,,,,,,,,,,,,,,left,0.631965,1,6,23,9,1,,,,,,,,,
,,,,,,,stim2/pa+30.wav,5fc9b1252395584af6debd51,2021-01-20_01h03.07.236,English_step1,2020.2.3,Win32,60,,,,,,,,,,,,,,,,,,left,0.9047,1,7,24,5,1,,,,,,,,,
,,,,,,,stim2/pa+15.wav,5fc9b1252395584af6debd51,2021-01-20_01h03.07.236,English_step1,2020.2.3,Win32,60,,,,,,,,,,,,,,,,,,left,1.52785,1,8,25,2,1,,,,,,,,,
,,,,,,,stim2/pa+40.wav,5fc9b1252395584af6debd51,2021-01-20_01h03.07.236,English_step1,2020.2.3,Win32,60,,,,,,,,,,,,,,,,,,left,0.82157,1,9,26,7,1,,,,,,,,,
,,,,,,,stim2/pa-10.wav,5fc9b1252395584af6debd51,2021-01-20_01h03.07.236,English_step1,2020.2.3,Win32,60,,,,,,,,,,,,,,,,,,right,1.21687,1,10,27,11,1,,,,,,,,,
,,,,,,,stim2/pa+10.wav,5fc9b1252395584af6debd51,2021-01-20_01h03.07.236,English_step1,2020.2.3,Win32,60,,,,,,,,,,,,,,,,,,left,0.858145,1,11,28,1,1,,,,,,,,,
,,,,,,,stim2/pa-30.wav,5fc9b1252395584af6debd51,2021-01-20_01h03.07.236,English_step1,2020.2.3,Win32,60,,,,,,,,,,,,,,,,,,right,0.738355,1,12,29,15,1,,,,,,,,,
,,,,,,,stim2/pa-20.wav,5fc9b1252395584af6debd51,2021-01-20_01h03.07.236,English_step1,2020.2.3,Win32,60,,,,,,,,,,,,,,,,,,right,0.833395,1,13,30,13,1,,,,,,,,,
,,,,,,,stim2/pa+35.wav,5fc9b1252395584af6debd51,2021-01-20_01h03.07.236,English_step1,2020.2.3,Win32,60,,,,,,,,,,,,,,,,,,left,0.83407,1,14,31,6,1,,,,,,,,,
,,,,,,,stim2/pa+05.wav,5fc9b1252395584af6debd51,2021-01-20_01h03.07.236,English_step1,2020.2.3,Win32,60,,,,,,,,,,,,,,,,,,left,0.706425,1,15,32,0,1,,,,,,,,,
,,,,,,,stim2/pa+25.wav,5fc9b1252395584af6debd51,2021-01-20_01h03.07.236,English_step1,2020.2.3,Win32,60,,,,,,,,,,,,,,,,,,left,1.00958,1,16,33,4,1,,,,,,,,,
,,,,,,,stim2/pa-10.wav,5fc9b1252395584af6debd51,2021-01-20_01h03.07.236,English_step1,2020.2.3,Win32,60,,,,,,,,,,,,,,,,,,left,1.275455,2,0,34,11,1,,,,,,,,,
,,,,,,,stim2/pa+10.wav,5fc9b1252395584af6debd51,2021-01-20_01h03.07.236,English_step1,2020.2.3,Win32,60,,,,,,,,,,,,,,,,,,left,0.900655,2,1,35,1,1,,,,,,,,,
,,,,,,,stim2/pa+30.wav,5fc9b1252395584af6debd51,2021-01-20_01h03.07.236,English_step1,2020.2.3,Win32,60,,,,,,,,,,,,,,,,,,left,0.868395,2,2,36,5,1,,,,,,,,,
,,,,,,,stim2/pa-30.wav,5fc9b1252395584af6debd51,2021-01-20_01h03.07.236,English_step1,2020.2.3,Win32,60,,,,,,,,,,,,,,,,,,right,0.57744,2,3,37,15,1,,,,,,,,,
,,,,,,,stim2/pa+45.wav,5fc9b1252395584af6debd51,2021-01-20_01h03.07.236,English_step1,2020.2.3,Win32,60,,,,,,,,,,,,,,,,,,left,0.70174,2,4,38,8,1,,,,,,,,,
,,,,,,,stim2/pa-25.wav,5fc9b1252395584af6debd51,2021-01-20_01h03.07.236,English_step1,2020.2.3,Win32,60,,,,,,,,,,,,,,,,,,right,0.5648,2,5,39,14,1,,,,,,,,,
,,,,,,,stim2/pa-15.wav,5fc9b1252395584af6debd51,2021-01-20_01h03.07.236,English_step1,2020.2.3,Win32,60,,,,,,,,,,,,,,,,,,right,0.69762,2,6,40,12,1,,,,,,,,,
,,,,,,,stim2/pa+15.wav,5fc9b1252395584af6debd51,2021-01-20_01h03.07.236,English_step1,2020.2.3,Win32,60,,,,,,,,,,,,,,,,,,left,0.63308,2,7,41,2,1,,,,,,,,,
,,,,,,,stim2/pa-20.wav,5fc9b1252395584af6debd51,2021-01-20_01h03.07.236,English_step1,2020.2.3,Win32,60,,,,,,,,,,,,,,,,,,right,2.641435,2,8,42,13,1,,,,,,,,,
,,,,,,,stim2/pa+50.wav,5fc9b1252395584af6debd51,2021-01-20_01h03.07.236,English_step1,2020.2.3,Win32,60,,,,,,,,,,,,,,,,,,left,0.700355,2,9,43,9,1,,,,,,,,,
,,,,,,,stim2/pa-35.wav,5fc9b1252395584af6debd51,2021-01-20_01h03.07.236,English_step1,2020.2.3,Win32,60,,,,,,,,,,,,,,,,,,right,0.66502,2,10,44,16,1,,,,,,,,,
,,,,,,,stim2/pa+35.wav,5fc9b1252395584af6debd51,2021-01-20_01h03.07.236,English_step1,2020.2.3,Win32,60,,,,,,,,,,,,,,,,,,left,0.69841,2,11,45,6,1,,,,,,,,,
,,,,,,,stim2/pa+05.wav,5fc9b1252395584af6debd51,2021-01-20_01h03.07.236,English_step1,2020.2.3,Win32,60,,,,,,,,,,,,,,,,,,left,1.92182,2,12,46,0,1,,,,,,,,,
,,,,,,,stim2/pa-05.wav,5fc9b1252395584af6debd51,2021-01-20_01h03.07.236,English_step1,2020.2.3,Win32,60,,,,,,,,,,,,,,,,,,right,0.831715,2,13,47,10,1,,,,,,,,,
,,,,,,,stim2/pa+25.wav,5fc9b1252395584af6debd51,2021-01-20_01h03.07.236,English_step1,2020.2.3,Win32,60,,,,,,,,,,,,,,,,,,left,1.0164,2,14,48,4,1,,,,,,,,,
,,,,,,,stim2/pa+40.wav,5fc9b1252395584af6debd51,2021-01-20_01h03.07.236,English_step1,2020.2.3,Win32,60,,,,,,,,,,,,,,,,,,left,0.731605,2,15,49,7,1,,,,,,,,,
,,,,,,,stim2/pa+20.wav,5fc9b1252395584af6debd51,2021-01-20_01h03.07.236,English_step1,2020.2.3,Win32,60,,,,,,,,,,,,,,,,,,left,0.54636,2,16,50,3,1,,,,,,,,,
,,,,,,,stim2/pa-30.wav,5fc9b1252395584af6debd51,2021-01-20_01h03.07.236,English_step1,2020.2.3,Win32,60,,,,,,,,,,,,,,,,,,right,1.228035,,,,,,q,4.2485,0,0,0,15,1,,
,,,,,,,stim2/pa-05.wav,5fc9b1252395584af6debd51,2021-01-20_01h03.07.236,English_step1,2020.2.3,Win32,60,,,,,,,,,,,,,,,,,,right,1.461415,,,,,,,,0,1,1,10,1,,
,,,,,,,stim2/pa+10.wav,5fc9b1252395584af6debd51,2021-01-20_01h03.07.236,English_step1,2020.2.3,Win32,60,,,,,,,,,,,,,,,,,,left,1.454095,,,,,,,,0,2,2,1,1,,
,,,,,,,stim2/pa+35.wav,5fc9b1252395584af6debd51,2021-01-20_01h03.07.236,English_step1,2020.2.3,Win32,60,,,,,,,,,,,,,,,,,,left,0.864465,,,,,,,,0,3,3,6,1,,
,,,,,,,stim2/pa+20.wav,5fc9b1252395584af6debd51,2021-01-20_01h03.07.236,English_step1,2020.2.3,Win32,60,,,,,,,,,,,,,,,,,,left,1.302935,,,,,,,,0,4,4,3,1,,
,,,,,,,stim2/pa+25.wav,5fc9b1252395584af6debd51,2021-01-20_01h03.07.236,English_step1,2020.2.3,Win32,60,,,,,,,,,,,,,,,,,,left,1.806395,,,,,,,,0,5,5,4,1,,
,,,,,,,stim2/pa-20.wav,5fc9b1252395584af6debd51,2021-01-20_01h03.07.236,English_step1,2020.2.3,Win32,60,,,,,,,,,,,,,,,,,,right,0.872365,,,,,,,,0,6,6,13,1,,
,,,,,,,stim2/pa+50.wav,5fc9b1252395584af6debd51,2021-01-20_01h03.07.236,English_step1,2020.2.3,Win32,60,,,,,,,,,,,,,,,,,,left,0.70511,,,,,,,,0,7,7,9,1,,
,,,,,,,stim2/pa+45.wav,5fc9b1252395584af6debd51,2021-01-20_01h03.07.236,English_step1,2020.2.3,Win32,60,,,,,,,,,,,,,,,,,,left,0.67171,,,,,,,,0,8,8,8,1,,
,,,,,,,stim2/pa+30.wav,5fc9b1252395584af6debd51,2021-01-20_01h03.07.236,English_step1,2020.2.3,Win32,60,,,,,,,,,,,,,,,,,,left,1.071685,,,,,,,,0,9,9,5,1,,
,,,,,,,stim2/pa-10.wav,5fc9b1252395584af6debd51,2021-01-20_01h03.07.236,English_step1,2020.2.3,Win32,60,,,,,,,,,,,,,,,,,,right,1.5521,,,,,,,,0,10,10,11,1,,
,,,,,,,stim2/pa-25.wav,5fc9b1252395584af6debd51,2021-01-20_01h03.07.236,English_step1,2020.2.3,Win32,60,,,,,,,,,,,,,,,,,,right,0.635735,,,,,,,,0,11,11,14,1,,
,,,,,,,stim2/pa-35.wav,5fc9b1252395584af6debd51,2021-01-20_01h03.07.236,English_step1,2020.2.3,Win32,60,,,,,,,,,,,,,,,,,,right,0.629195,,,,,,,,0,12,12,16,1,,
,,,,,,,stim2/pa+40.wav,5fc9b1252395584af6debd51,2021-01-20_01h03.07.236,English_step1,2020.2.3,Win32,60,,,,,,,,,,,,,,,,,,right,1.15128,,,,,,,,0,13,13,7,1,,
,,,,,,,stim2/pa+05.wav,5fc9b1252395584af6debd51,2021-01-20_01h03.07.236,English_step1,2020.2.3,Win32,60,,,,,,,,,,,,,,,,,,right,0.97874,,,,,,,,0,14,14,0,1,,
,,,,,,,stim2/pa+15.wav,5fc9b1252395584af6debd51,2021-01-20_01h03.07.236,English_step1,2020.2.3,Win32,60,,,,,,,,,,,,,,,,,,left,0.567535,,,,,,,,0,15,15,2,1,,
,,,,,,,stim2/pa-15.wav,5fc9b1252395584af6debd51,2021-01-20_01h03.07.236,English_step1,2020.2.3,Win32,60,,,,,,,,,,,,,,,,,,right,0.59562,,,,,,,,0,16,16,12,1,,
,,,,,,,stim2/pa+20.wav,5fc9b1252395584af6debd51,2021-01-20_01h03.07.236,English_step1,2020.2.3,Win32,60,,,,,,,,,,,,,,,,,,left,1.27108,,,,,,,,1,0,17,3,1,,
,,,,,,,stim2/pa+10.wav,5fc9b1252395584af6debd51,2021-01-20_01h03.07.236,English_step1,2020.2.3,Win32,60,,,,,,,,,,,,,,,,,,left,0.66429,,,,,,,,1,1,18,1,1,,
,,,,,,,stim2/pa+40.wav,5fc9b1252395584af6debd51,2021-01-20_01h03.07.236,English_step1,2020.2.3,Win32,60,,,,,,,,,,,,,,,,,,left,1.359535,,,,,,,,1,2,19,7,1,,
,,,,,,,stim2/pa-35.wav,5fc9b1252395584af6debd51,2021-01-20_01h03.07.236,English_step1,2020.2.3,Win32,60,,,,,,,,,,,,,,,,,,right,0.764325,,,,,,,,1,3,20,16,1,,
,,,,,,,stim2/pa-05.wav,5fc9b1252395584af6debd51,2021-01-20_01h03.07.236,English_step1,2020.2.3,Win32,60,,,,,,,,,,,,,,,,,,right,1.49669,,,,,,,,1,4,21,10,1,,
,,,,,,,stim2/pa+50.wav,5fc9b1252395584af6debd51,2021-01-20_01h03.07.236,English_step1,2020.2.3,Win32,60,,,,,,,,,,,,,,,,,,left,0.67131,,,,,,,,1,5,22,9,1,,
,,,,,,,stim2/pa-15.wav,5fc9b1252395584af6debd51,2021-01-20_01h03.07.236,English_step1,2020.2.3,Win32,60,,,,,,,,,,,,,,,,,,right,0.92005,,,,,,,,1,6,23,12,1,,
,,,,,,,stim2/pa+30.wav,5fc9b1252395584af6debd51,2021-01-20_01h03.07.236,English_step1,2020.2.3,Win32,60,,,,,,,,,,,,,,,,,,left,0.967155,,,,,,,,1,7,24,5,1,,
,,,,,,,stim2/pa-10.wav,5fc9b1252395584af6debd51,2021-01-20_01h03.07.236,English_step1,2020.2.3,Win32,60,,,,,,,,,,,,,,,,,,right,0.762945,,,,,,,,1,8,25,11,1,,
,,,,,,,stim2/pa+15.wav,5fc9b1252395584af6debd51,2021-01-20_01h03.07.236,English_step1,2020.2.3,Win32,60,,,,,,,,,,,,,,,,,,left,0.72665,,,,,,,,1,9,26,2,1,,
,,,,,,,stim2/pa+05.wav,5fc9b1252395584af6debd51,2021-01-20_01h03.07.236,English_step1,2020.2.3,Win32,60,,,,,,,,,,,,,,,,,,right,0.908415,,,,,,,,1,10,27,0,1,,
,,,,,,,stim2/pa+35.wav,5fc9b1252395584af6debd51,2021-01-20_01h03.07.236,English_step1,2020.2.3,Win32,60,,,,,,,,,,,,,,,,,,left,0.62599,,,,,,,,1,11,28,6,1,,
,,,,,,,stim2/pa-30.wav,5fc9b1252395584af6debd51,2021-01-20_01h03.07.236,English_step1,2020.2.3,Win32,60,,,,,,,,,,,,,,,,,,right,0.645245,,,,,,,,1,12,29,15,1,,
,,,,,,,stim2/pa-20.wav,5fc9b1252395584af6debd51,2021-01-20_01h03.07.236,English_step1,2020.2.3,Win32,60,,,,,,,,,,,,,,,,,,right,0.82207,,,,,,,,1,13,30,13,1,,
,,,,,,,stim2/pa+45.wav,5fc9b1252395584af6debd51,2021-01-20_01h03.07.236,English_step1,2020.2.3,Win32,60,,,,,,,,,,,,,,,,,,left,0.616785,,,,,,,,1,14,31,8,1,,
,,,,,,,stim2/pa-25.wav,5fc9b1252395584af6debd51,2021-01-20_01h03.07.236,English_step1,2020.2.3,Win32,60,,,,,,,,,,,,,,,,,,right,0.84245,,,,,,,,1,15,32,14,1,,
,,,,,,,stim2/pa+25.wav,5fc9b1252395584af6debd51,2021-01-20_01h03.07.236,English_step1,2020.2.3,Win32,60,,,,,,,,,,,,,,,,,,left,0.661005,,,,,,,,1,16,33,4,1,,
,,,,,,,,5fc9b1252395584af6debd51,2021-01-20_01h03.07.236,English_step1,2020.2.3,Win32,60,,,,,,,,,,,,,,,,,,,,,,,,,,,,,,,,space,32.629215
