resp.keys,resp.rt,trials.thisRepN,trials.thisTrialN,trials.thisN,trials.thisIndex,trials.ran,stimuli,participant,date,expName,psychopyVersion,OS,frameRate,gotResponse.keys,gotResponse.rt,resp_2.keys,resp_2.rt,trials_2.thisRepN,trials_2.thisTrialN,trials_2.thisN,trials_2.thisIndex,trials_2.ran,key_resp_3.keys,key_resp_3.rt,trials_4.thisRepN,trials_4.thisTrialN,trials_4.thisN,trials_4.thisIndex,trials_4.ran,resp_3.keys,resp_3.rt,trials_3.thisRepN,trials_3.thisTrialN,trials_3.thisN,trials_3.thisIndex,trials_3.ran,key_resp_2.keys,key_resp_2.rt,trials_5.thisRepN,trials_5.thisTrialN,trials_5.thisN,trials_5.thisIndex,trials_5.ran,key_resp.keys,key_resp.rt
left,2.691,0,0,0,0,1,stim/VC_01.wav,5d159d0a8078020016aa60b9,2021-01-20_15h32.54.837,Spanish_step2,2020.2.3,Win32,60,,,,,,,,,,,,,,,,,,,,,,,,,,,,,,,,
right,0.91,0,1,1,1,1,stim/VC_11.wav,5d159d0a8078020016aa60b9,2021-01-20_15h32.54.837,Spanish_step2,2020.2.3,Win32,60,,,,,,,,,,,,,,,,,,,,,,,,,,,,,,,,
,,,,,,,stim/VC_03.wav,5d159d0a8078020016aa60b9,2021-01-20_15h32.54.837,Spanish_step2,2020.2.3,Win32,60,space,1.504,left,0.895,0,0,0,2,1,,,,,,,,,,,,,,,,,,,,,,,
,,,,,,,stim/VC_01.wav,5d159d0a8078020016aa60b9,2021-01-20_15h32.54.837,Spanish_step2,2020.2.3,Win32,60,,,left,0.604,0,1,1,0,1,,,,,,,,,,,,,,,,,,,,,,,
,,,,,,,stim/VC_10.wav,5d159d0a8078020016aa60b9,2021-01-20_15h32.54.837,Spanish_step2,2020.2.3,Win32,60,,,right,0.45,0,2,2,9,1,,,,,,,,,,,,,,,,,,,,,,,
,,,,,,,stim/VC_11.wav,5d159d0a8078020016aa60b9,2021-01-20_15h32.54.837,Spanish_step2,2020.2.3,Win32,60,,,right,0.468,0,3,3,10,1,,,,,,,,,,,,,,,,,,,,,,,
,,,,,,,stim/VC_08.wav,5d159d0a8078020016aa60b9,2021-01-20_15h32.54.837,Spanish_step2,2020.2.3,Win32,60,,,right,0.432,0,4,4,7,1,,,,,,,,,,,,,,,,,,,,,,,
,,,,,,,stim/VC_02.wav,5d159d0a8078020016aa60b9,2021-01-20_15h32.54.837,Spanish_step2,2020.2.3,Win32,60,,,left,0.395,0,5,5,1,1,,,,,,,,,,,,,,,,,,,,,,,
,,,,,,,stim/VC_07.wav,5d159d0a8078020016aa60b9,2021-01-20_15h32.54.837,Spanish_step2,2020.2.3,Win32,60,,,right,0.433,0,6,6,6,1,,,,,,,,,,,,,,,,,,,,,,,
,,,,,,,stim/VC_04.wav,5d159d0a8078020016aa60b9,2021-01-20_15h32.54.837,Spanish_step2,2020.2.3,Win32,60,,,left,0.303,0,7,7,3,1,,,,,,,,,,,,,,,,,,,,,,,
,,,,,,,stim/VC_05.wav,5d159d0a8078020016aa60b9,2021-01-20_15h32.54.837,Spanish_step2,2020.2.3,Win32,60,,,left,0.489,0,8,8,4,1,,,,,,,,,,,,,,,,,,,,,,,
,,,,,,,stim/VC_06.wav,5d159d0a8078020016aa60b9,2021-01-20_15h32.54.837,Spanish_step2,2020.2.3,Win32,60,,,right,0.646,0,9,9,5,1,,,,,,,,,,,,,,,,,,,,,,,
,,,,,,,stim/VC_09.wav,5d159d0a8078020016aa60b9,2021-01-20_15h32.54.837,Spanish_step2,2020.2.3,Win32,60,,,right,0.583,0,10,10,8,1,,,,,,,,,,,,,,,,,,,,,,,
,,,,,,,stim/VC_08.wav,5d159d0a8078020016aa60b9,2021-01-20_15h32.54.837,Spanish_step2,2020.2.3,Win32,60,,,right,0.476,1,0,11,7,1,,,,,,,,,,,,,,,,,,,,,,,
,,,,,,,stim/VC_10.wav,5d159d0a8078020016aa60b9,2021-01-20_15h32.54.837,Spanish_step2,2020.2.3,Win32,60,,,right,0.43,1,1,12,9,1,,,,,,,,,,,,,,,,,,,,,,,
,,,,,,,stim/VC_11.wav,5d159d0a8078020016aa60b9,2021-01-20_15h32.54.837,Spanish_step2,2020.2.3,Win32,60,,,right,0.39,1,2,13,10,1,,,,,,,,,,,,,,,,,,,,,,,
,,,,,,,stim/VC_07.wav,5d159d0a8078020016aa60b9,2021-01-20_15h32.54.837,Spanish_step2,2020.2.3,Win32,60,,,right,0.402,1,3,14,6,1,,,,,,,,,,,,,,,,,,,,,,,
,,,,,,,stim/VC_04.wav,5d159d0a8078020016aa60b9,2021-01-20_15h32.54.837,Spanish_step2,2020.2.3,Win32,60,,,left,0.657,1,4,15,3,1,,,,,,,,,,,,,,,,,,,,,,,
,,,,,,,stim/VC_03.wav,5d159d0a8078020016aa60b9,2021-01-20_15h32.54.837,Spanish_step2,2020.2.3,Win32,60,,,left,0.443,1,5,16,2,1,,,,,,,,,,,,,,,,,,,,,,,
,,,,,,,stim/VC_01.wav,5d159d0a8078020016aa60b9,2021-01-20_15h32.54.837,Spanish_step2,2020.2.3,Win32,60,,,left,0.498,1,6,17,0,1,,,,,,,,,,,,,,,,,,,,,,,
,,,,,,,stim/VC_09.wav,5d159d0a8078020016aa60b9,2021-01-20_15h32.54.837,Spanish_step2,2020.2.3,Win32,60,,,right,0.508,1,7,18,8,1,,,,,,,,,,,,,,,,,,,,,,,
,,,,,,,stim/VC_05.wav,5d159d0a8078020016aa60b9,2021-01-20_15h32.54.837,Spanish_step2,2020.2.3,Win32,60,,,left,1.411,1,8,19,4,1,,,,,,,,,,,,,,,,,,,,,,,
,,,,,,,stim/VC_06.wav,5d159d0a8078020016aa60b9,2021-01-20_15h32.54.837,Spanish_step2,2020.2.3,Win32,60,,,right,0.562,1,9,20,5,1,,,,,,,,,,,,,,,,,,,,,,,
,,,,,,,stim/VC_02.wav,5d159d0a8078020016aa60b9,2021-01-20_15h32.54.837,Spanish_step2,2020.2.3,Win32,60,,,left,0.368,1,10,21,1,1,,,,,,,,,,,,,,,,,,,,,,,
,,,,,,,stim/VC_10.wav,5d159d0a8078020016aa60b9,2021-01-20_15h32.54.837,Spanish_step2,2020.2.3,Win32,60,,,right,0.391,2,0,22,9,1,,,,,,,,,,,,,,,,,,,,,,,
,,,,,,,stim/VC_09.wav,5d159d0a8078020016aa60b9,2021-01-20_15h32.54.837,Spanish_step2,2020.2.3,Win32,60,,,right,0.535,2,1,23,8,1,,,,,,,,,,,,,,,,,,,,,,,
,,,,,,,stim/VC_11.wav,5d159d0a8078020016aa60b9,2021-01-20_15h32.54.837,Spanish_step2,2020.2.3,Win32,60,,,right,0.494,2,2,24,10,1,,,,,,,,,,,,,,,,,,,,,,,
,,,,,,,stim/VC_06.wav,5d159d0a8078020016aa60b9,2021-01-20_15h32.54.837,Spanish_step2,2020.2.3,Win32,60,,,right,0.362,2,3,25,5,1,,,,,,,,,,,,,,,,,,,,,,,
,,,,,,,stim/VC_03.wav,5d159d0a8078020016aa60b9,2021-01-20_15h32.54.837,Spanish_step2,2020.2.3,Win32,60,,,right,0.593,2,4,26,2,1,,,,,,,,,,,,,,,,,,,,,,,
,,,,,,,stim/VC_04.wav,5d159d0a8078020016aa60b9,2021-01-20_15h32.54.837,Spanish_step2,2020.2.3,Win32,60,,,left,0.79,2,5,27,3,1,,,,,,,,,,,,,,,,,,,,,,,
,,,,,,,stim/VC_08.wav,5d159d0a8078020016aa60b9,2021-01-20_15h32.54.837,Spanish_step2,2020.2.3,Win32,60,,,right,0.556,2,6,28,7,1,,,,,,,,,,,,,,,,,,,,,,,
,,,,,,,stim/VC_01.wav,5d159d0a8078020016aa60b9,2021-01-20_15h32.54.837,Spanish_step2,2020.2.3,Win32,60,,,left,0.448,2,7,29,0,1,,,,,,,,,,,,,,,,,,,,,,,
,,,,,,,stim/VC_07.wav,5d159d0a8078020016aa60b9,2021-01-20_15h32.54.837,Spanish_step2,2020.2.3,Win32,60,,,right,0.464,2,8,30,6,1,,,,,,,,,,,,,,,,,,,,,,,
,,,,,,,stim/VC_02.wav,5d159d0a8078020016aa60b9,2021-01-20_15h32.54.837,Spanish_step2,2020.2.3,Win32,60,,,left,0.601,2,9,31,1,1,,,,,,,,,,,,,,,,,,,,,,,
,,,,,,,stim/VC_05.wav,5d159d0a8078020016aa60b9,2021-01-20_15h32.54.837,Spanish_step2,2020.2.3,Win32,60,,,left,2.017,2,10,32,4,1,,,,,,,,,,,,,,,,,,,,,,,
,,,,,,,stim/VC_01.wav,5d159d0a8078020016aa60b9,2021-01-20_15h32.54.837,Spanish_step2,2020.2.3,Win32,60,,,left,1.029,,,,,,7,1.905,0,0,0,0,1,,,,,,,,,,,,,,,,
,,,,,,,stim/VC_03.wav,5d159d0a8078020016aa60b9,2021-01-20_15h32.54.837,Spanish_step2,2020.2.3,Win32,60,,,left,0.459,,,,,,,,0,1,1,2,1,,,,,,,,,,,,,,,,
,,,,,,,stim/VC_07.wav,5d159d0a8078020016aa60b9,2021-01-20_15h32.54.837,Spanish_step2,2020.2.3,Win32,60,,,right,0.545,,,,,,,,0,2,2,6,1,,,,,,,,,,,,,,,,
,,,,,,,stim/VC_10.wav,5d159d0a8078020016aa60b9,2021-01-20_15h32.54.837,Spanish_step2,2020.2.3,Win32,60,,,right,0.472,,,,,,,,0,3,3,9,1,,,,,,,,,,,,,,,,
,,,,,,,stim/VC_08.wav,5d159d0a8078020016aa60b9,2021-01-20_15h32.54.837,Spanish_step2,2020.2.3,Win32,60,,,right,0.416,,,,,,,,0,4,4,7,1,,,,,,,,,,,,,,,,
,,,,,,,stim/VC_02.wav,5d159d0a8078020016aa60b9,2021-01-20_15h32.54.837,Spanish_step2,2020.2.3,Win32,60,,,left,0.462,,,,,,,,0,5,5,1,1,,,,,,,,,,,,,,,,
,,,,,,,stim/VC_06.wav,5d159d0a8078020016aa60b9,2021-01-20_15h32.54.837,Spanish_step2,2020.2.3,Win32,60,,,right,0.425,,,,,,,,0,6,6,5,1,,,,,,,,,,,,,,,,
,,,,,,,stim/VC_05.wav,5d159d0a8078020016aa60b9,2021-01-20_15h32.54.837,Spanish_step2,2020.2.3,Win32,60,,,left,0.284,,,,,,,,0,7,7,4,1,,,,,,,,,,,,,,,,
,,,,,,,stim/VC_09.wav,5d159d0a8078020016aa60b9,2021-01-20_15h32.54.837,Spanish_step2,2020.2.3,Win32,60,,,right,1.058,,,,,,,,0,8,8,8,1,,,,,,,,,,,,,,,,
,,,,,,,stim/VC_04.wav,5d159d0a8078020016aa60b9,2021-01-20_15h32.54.837,Spanish_step2,2020.2.3,Win32,60,,,left,0.613,,,,,,,,0,9,9,3,1,,,,,,,,,,,,,,,,
,,,,,,,stim/VC_11.wav,5d159d0a8078020016aa60b9,2021-01-20_15h32.54.837,Spanish_step2,2020.2.3,Win32,60,,,right,0.766,,,,,,,,0,10,10,10,1,,,,,,,,,,,,,,,,
,,,,,,,stim/VC_10.wav,5d159d0a8078020016aa60b9,2021-01-20_15h32.54.837,Spanish_step2,2020.2.3,Win32,60,,,right,0.552,,,,,,,,1,0,11,9,1,,,,,,,,,,,,,,,,
,,,,,,,stim/VC_03.wav,5d159d0a8078020016aa60b9,2021-01-20_15h32.54.837,Spanish_step2,2020.2.3,Win32,60,,,left,0.597,,,,,,,,1,1,12,2,1,,,,,,,,,,,,,,,,
,,,,,,,stim/VC_11.wav,5d159d0a8078020016aa60b9,2021-01-20_15h32.54.837,Spanish_step2,2020.2.3,Win32,60,,,right,0.467,,,,,,,,1,2,13,10,1,,,,,,,,,,,,,,,,
,,,,,,,stim/VC_01.wav,5d159d0a8078020016aa60b9,2021-01-20_15h32.54.837,Spanish_step2,2020.2.3,Win32,60,,,left,0.79,,,,,,,,1,3,14,0,1,,,,,,,,,,,,,,,,
,,,,,,,stim/VC_07.wav,5d159d0a8078020016aa60b9,2021-01-20_15h32.54.837,Spanish_step2,2020.2.3,Win32,60,,,right,0.459,,,,,,,,1,4,15,6,1,,,,,,,,,,,,,,,,
,,,,,,,stim/VC_08.wav,5d159d0a8078020016aa60b9,2021-01-20_15h32.54.837,Spanish_step2,2020.2.3,Win32,60,,,right,1.236,,,,,,,,1,5,16,7,1,,,,,,,,,,,,,,,,
,,,,,,,stim/VC_04.wav,5d159d0a8078020016aa60b9,2021-01-20_15h32.54.837,Spanish_step2,2020.2.3,Win32,60,,,left,0.657,,,,,,,,1,6,17,3,1,,,,,,,,,,,,,,,,
,,,,,,,stim/VC_09.wav,5d159d0a8078020016aa60b9,2021-01-20_15h32.54.837,Spanish_step2,2020.2.3,Win32,60,,,right,0.619,,,,,,,,1,7,18,8,1,,,,,,,,,,,,,,,,
,,,,,,,stim/VC_02.wav,5d159d0a8078020016aa60b9,2021-01-20_15h32.54.837,Spanish_step2,2020.2.3,Win32,60,,,left,0.478,,,,,,,,1,8,19,1,1,,,,,,,,,,,,,,,,
,,,,,,,stim/VC_05.wav,5d159d0a8078020016aa60b9,2021-01-20_15h32.54.837,Spanish_step2,2020.2.3,Win32,60,,,right,0.762,,,,,,,,1,9,20,4,1,,,,,,,,,,,,,,,,
,,,,,,,stim/VC_06.wav,5d159d0a8078020016aa60b9,2021-01-20_15h32.54.837,Spanish_step2,2020.2.3,Win32,60,,,right,0.93,,,,,,,,1,10,21,5,1,,,,,,,,,,,,,,,,
,,,,,,,stim2/pa+50.wav,5d159d0a8078020016aa60b9,2021-01-20_15h32.54.837,Spanish_step2,2020.2.3,Win32,60,,,,,,,,,,,,,,,,,left,2.115,0,0,0,9,1,,,,,,,,,
,,,,,,,stim2/pa-35.wav,5d159d0a8078020016aa60b9,2021-01-20_15h32.54.837,Spanish_step2,2020.2.3,Win32,60,,,,,,,,,,,,,,,,,right,0.491,0,1,1,16,1,,,,,,,,,
,,,,,,,stim2/pa+15.wav,5d159d0a8078020016aa60b9,2021-01-20_15h32.54.837,Spanish_step2,2020.2.3,Win32,60,,,,,,,,,,,,,,,,,left,0.298,0,2,2,2,1,,,,,,,,,
,,,,,,,stim2/pa-25.wav,5d159d0a8078020016aa60b9,2021-01-20_15h32.54.837,Spanish_step2,2020.2.3,Win32,60,,,,,,,,,,,,,,,,,right,0.668,0,3,3,14,1,,,,,,,,,
,,,,,,,stim2/pa+25.wav,5d159d0a8078020016aa60b9,2021-01-20_15h32.54.837,Spanish_step2,2020.2.3,Win32,60,,,,,,,,,,,,,,,,,left,0.322,0,4,4,4,1,,,,,,,,,
,,,,,,,stim2/pa-15.wav,5d159d0a8078020016aa60b9,2021-01-20_15h32.54.837,Spanish_step2,2020.2.3,Win32,60,,,,,,,,,,,,,,,,,right,0.522,0,5,5,12,1,,,,,,,,,
,,,,,,,stim2/pa+05.wav,5d159d0a8078020016aa60b9,2021-01-20_15h32.54.837,Spanish_step2,2020.2.3,Win32,60,,,,,,,,,,,,,,,,,left,0.288,0,6,6,0,1,,,,,,,,,
,,,,,,,stim2/pa+30.wav,5d159d0a8078020016aa60b9,2021-01-20_15h32.54.837,Spanish_step2,2020.2.3,Win32,60,,,,,,,,,,,,,,,,,right,0.377,0,7,7,5,1,,,,,,,,,
,,,,,,,stim2/pa+45.wav,5d159d0a8078020016aa60b9,2021-01-20_15h32.54.837,Spanish_step2,2020.2.3,Win32,60,,,,,,,,,,,,,,,,,left,0.348,0,8,8,8,1,,,,,,,,,
,,,,,,,stim2/pa+20.wav,5d159d0a8078020016aa60b9,2021-01-20_15h32.54.837,Spanish_step2,2020.2.3,Win32,60,,,,,,,,,,,,,,,,,left,0.873,0,9,9,3,1,,,,,,,,,
,,,,,,,stim2/pa-30.wav,5d159d0a8078020016aa60b9,2021-01-20_15h32.54.837,Spanish_step2,2020.2.3,Win32,60,,,,,,,,,,,,,,,,,right,0.486,0,10,10,15,1,,,,,,,,,
,,,,,,,stim2/pa+40.wav,5d159d0a8078020016aa60b9,2021-01-20_15h32.54.837,Spanish_step2,2020.2.3,Win32,60,,,,,,,,,,,,,,,,,left,0.469,0,11,11,7,1,,,,,,,,,
,,,,,,,stim2/pa-20.wav,5d159d0a8078020016aa60b9,2021-01-20_15h32.54.837,Spanish_step2,2020.2.3,Win32,60,,,,,,,,,,,,,,,,,right,1.08,0,12,12,13,1,,,,,,,,,
,,,,,,,stim2/pa+35.wav,5d159d0a8078020016aa60b9,2021-01-20_15h32.54.837,Spanish_step2,2020.2.3,Win32,60,,,,,,,,,,,,,,,,,left,1.266,0,13,13,6,1,,,,,,,,,
,,,,,,,stim2/pa-05.wav,5d159d0a8078020016aa60b9,2021-01-20_15h32.54.837,Spanish_step2,2020.2.3,Win32,60,,,,,,,,,,,,,,,,,right,0.561,0,14,14,10,1,,,,,,,,,
,,,,,,,stim2/pa+10.wav,5d159d0a8078020016aa60b9,2021-01-20_15h32.54.837,Spanish_step2,2020.2.3,Win32,60,,,,,,,,,,,,,,,,,left,0.589,0,15,15,1,1,,,,,,,,,
,,,,,,,stim2/pa-10.wav,5d159d0a8078020016aa60b9,2021-01-20_15h32.54.837,Spanish_step2,2020.2.3,Win32,60,,,,,,,,,,,,,,,,,right,1.591,0,16,16,11,1,,,,,,,,,
,,,,,,,stim2/pa+10.wav,5d159d0a8078020016aa60b9,2021-01-20_15h32.54.837,Spanish_step2,2020.2.3,Win32,60,,,,,,,,,,,,,,,,,left,0.429,1,0,17,1,1,,,,,,,,,
,,,,,,,stim2/pa-25.wav,5d159d0a8078020016aa60b9,2021-01-20_15h32.54.837,Spanish_step2,2020.2.3,Win32,60,,,,,,,,,,,,,,,,,right,0.467,1,1,18,14,1,,,,,,,,,
,,,,,,,stim2/pa+30.wav,5d159d0a8078020016aa60b9,2021-01-20_15h32.54.837,Spanish_step2,2020.2.3,Win32,60,,,,,,,,,,,,,,,,,left,0.509,1,2,19,5,1,,,,,,,,,
,,,,,,,stim2/pa+50.wav,5d159d0a8078020016aa60b9,2021-01-20_15h32.54.837,Spanish_step2,2020.2.3,Win32,60,,,,,,,,,,,,,,,,,left,1.683,1,3,20,9,1,,,,,,,,,
,,,,,,,stim2/pa+05.wav,5d159d0a8078020016aa60b9,2021-01-20_15h32.54.837,Spanish_step2,2020.2.3,Win32,60,,,,,,,,,,,,,,,,,left,0.707,1,4,21,0,1,,,,,,,,,
,,,,,,,stim2/pa+15.wav,5d159d0a8078020016aa60b9,2021-01-20_15h32.54.837,Spanish_step2,2020.2.3,Win32,60,,,,,,,,,,,,,,,,,left,0.574,1,5,22,2,1,,,,,,,,,
,,,,,,,stim2/pa+45.wav,5d159d0a8078020016aa60b9,2021-01-20_15h32.54.837,Spanish_step2,2020.2.3,Win32,60,,,,,,,,,,,,,,,,,left,0.873,1,6,23,8,1,,,,,,,,,
,,,,,,,stim2/pa-05.wav,5d159d0a8078020016aa60b9,2021-01-20_15h32.54.837,Spanish_step2,2020.2.3,Win32,60,,,,,,,,,,,,,,,,,left,0.606,1,7,24,10,1,,,,,,,,,
,,,,,,,stim2/pa-15.wav,5d159d0a8078020016aa60b9,2021-01-20_15h32.54.837,Spanish_step2,2020.2.3,Win32,60,,,,,,,,,,,,,,,,,right,0.429,1,8,25,12,1,,,,,,,,,
,,,,,,,stim2/pa-10.wav,5d159d0a8078020016aa60b9,2021-01-20_15h32.54.837,Spanish_step2,2020.2.3,Win32,60,,,,,,,,,,,,,,,,,right,0.666,1,9,26,11,1,,,,,,,,,
,,,,,,,stim2/pa-20.wav,5d159d0a8078020016aa60b9,2021-01-20_15h32.54.837,Spanish_step2,2020.2.3,Win32,60,,,,,,,,,,,,,,,,,right,0.447,1,10,27,13,1,,,,,,,,,
,,,,,,,stim2/pa+40.wav,5d159d0a8078020016aa60b9,2021-01-20_15h32.54.837,Spanish_step2,2020.2.3,Win32,60,,,,,,,,,,,,,,,,,right,0.456,1,11,28,7,1,,,,,,,,,
,,,,,,,stim2/pa-35.wav,5d159d0a8078020016aa60b9,2021-01-20_15h32.54.837,Spanish_step2,2020.2.3,Win32,60,,,,,,,,,,,,,,,,,right,0.961,1,12,29,16,1,,,,,,,,,
,,,,,,,stim2/pa+25.wav,5d159d0a8078020016aa60b9,2021-01-20_15h32.54.837,Spanish_step2,2020.2.3,Win32,60,,,,,,,,,,,,,,,,,left,0.472,1,13,30,4,1,,,,,,,,,
,,,,,,,stim2/pa+20.wav,5d159d0a8078020016aa60b9,2021-01-20_15h32.54.837,Spanish_step2,2020.2.3,Win32,60,,,,,,,,,,,,,,,,,left,0.885,1,14,31,3,1,,,,,,,,,
,,,,,,,stim2/pa-30.wav,5d159d0a8078020016aa60b9,2021-01-20_15h32.54.837,Spanish_step2,2020.2.3,Win32,60,,,,,,,,,,,,,,,,,right,0.517,1,15,32,15,1,,,,,,,,,
,,,,,,,stim2/pa+35.wav,5d159d0a8078020016aa60b9,2021-01-20_15h32.54.837,Spanish_step2,2020.2.3,Win32,60,,,,,,,,,,,,,,,,,left,0.451,1,16,33,6,1,,,,,,,,,
,,,,,,,stim2/pa+50.wav,5d159d0a8078020016aa60b9,2021-01-20_15h32.54.837,Spanish_step2,2020.2.3,Win32,60,,,,,,,,,,,,,,,,,right,2.035,2,0,34,9,1,,,,,,,,,
,,,,,,,stim2/pa+15.wav,5d159d0a8078020016aa60b9,2021-01-20_15h32.54.837,Spanish_step2,2020.2.3,Win32,60,,,,,,,,,,,,,,,,,left,0.496,2,1,35,2,1,,,,,,,,,
,,,,,,,stim2/pa+20.wav,5d159d0a8078020016aa60b9,2021-01-20_15h32.54.837,Spanish_step2,2020.2.3,Win32,60,,,,,,,,,,,,,,,,,left,1.384,2,2,36,3,1,,,,,,,,,
,,,,,,,stim2/pa-20.wav,5d159d0a8078020016aa60b9,2021-01-20_15h32.54.837,Spanish_step2,2020.2.3,Win32,60,,,,,,,,,,,,,,,,,right,0.577,2,3,37,13,1,,,,,,,,,
,,,,,,,stim2/pa+35.wav,5d159d0a8078020016aa60b9,2021-01-20_15h32.54.837,Spanish_step2,2020.2.3,Win32,60,,,,,,,,,,,,,,,,,left,0.428,2,4,38,6,1,,,,,,,,,
,,,,,,,stim2/pa-15.wav,5d159d0a8078020016aa60b9,2021-01-20_15h32.54.837,Spanish_step2,2020.2.3,Win32,60,,,,,,,,,,,,,,,,,right,0.955,2,5,39,12,1,,,,,,,,,
,,,,,,,stim2/pa+40.wav,5d159d0a8078020016aa60b9,2021-01-20_15h32.54.837,Spanish_step2,2020.2.3,Win32,60,,,,,,,,,,,,,,,,,left,1.607,2,6,40,7,1,,,,,,,,,
,,,,,,,stim2/pa-30.wav,5d159d0a8078020016aa60b9,2021-01-20_15h32.54.837,Spanish_step2,2020.2.3,Win32,60,,,,,,,,,,,,,,,,,right,0.468,2,7,41,15,1,,,,,,,,,
,,,,,,,stim2/pa+25.wav,5d159d0a8078020016aa60b9,2021-01-20_15h32.54.837,Spanish_step2,2020.2.3,Win32,60,,,,,,,,,,,,,,,,,right,0.85,2,8,42,4,1,,,,,,,,,
,,,,,,,stim2/pa-05.wav,5d159d0a8078020016aa60b9,2021-01-20_15h32.54.837,Spanish_step2,2020.2.3,Win32,60,,,,,,,,,,,,,,,,,left,0.403,2,9,43,10,1,,,,,,,,,
,,,,,,,stim2/pa+10.wav,5d159d0a8078020016aa60b9,2021-01-20_15h32.54.837,Spanish_step2,2020.2.3,Win32,60,,,,,,,,,,,,,,,,,left,0.635,2,10,44,1,1,,,,,,,,,
,,,,,,,stim2/pa-10.wav,5d159d0a8078020016aa60b9,2021-01-20_15h32.54.837,Spanish_step2,2020.2.3,Win32,60,,,,,,,,,,,,,,,,,right,0.56,2,11,45,11,1,,,,,,,,,
,,,,,,,stim2/pa-25.wav,5d159d0a8078020016aa60b9,2021-01-20_15h32.54.837,Spanish_step2,2020.2.3,Win32,60,,,,,,,,,,,,,,,,,right,0.526,2,12,46,14,1,,,,,,,,,
,,,,,,,stim2/pa-35.wav,5d159d0a8078020016aa60b9,2021-01-20_15h32.54.837,Spanish_step2,2020.2.3,Win32,60,,,,,,,,,,,,,,,,,right,0.534,2,13,47,16,1,,,,,,,,,
,,,,,,,stim2/pa+05.wav,5d159d0a8078020016aa60b9,2021-01-20_15h32.54.837,Spanish_step2,2020.2.3,Win32,60,,,,,,,,,,,,,,,,,left,0.369,2,14,48,0,1,,,,,,,,,
,,,,,,,stim2/pa+45.wav,5d159d0a8078020016aa60b9,2021-01-20_15h32.54.837,Spanish_step2,2020.2.3,Win32,60,,,,,,,,,,,,,,,,,left,0.801,2,15,49,8,1,,,,,,,,,
,,,,,,,stim2/pa+30.wav,5d159d0a8078020016aa60b9,2021-01-20_15h32.54.837,Spanish_step2,2020.2.3,Win32,60,,,,,,,,,,,,,,,,,right,0.529,2,16,50,5,1,,,,,,,,,
,,,,,,,stim2/pa+45.wav,5d159d0a8078020016aa60b9,2021-01-20_15h32.54.837,Spanish_step2,2020.2.3,Win32,60,,,,,,,,,,,,,,,,,left,1.04,,,,,,z,1.953,0,0,0,8,1,,
,,,,,,,stim2/pa-30.wav,5d159d0a8078020016aa60b9,2021-01-20_15h32.54.837,Spanish_step2,2020.2.3,Win32,60,,,,,,,,,,,,,,,,,right,0.519,,,,,,,,0,1,1,15,1,,
,,,,,,,stim2/pa+30.wav,5d159d0a8078020016aa60b9,2021-01-20_15h32.54.837,Spanish_step2,2020.2.3,Win32,60,,,,,,,,,,,,,,,,,left,0.339,,,,,,,,0,2,2,5,1,,
,,,,,,,stim2/pa+40.wav,5d159d0a8078020016aa60b9,2021-01-20_15h32.54.837,Spanish_step2,2020.2.3,Win32,60,,,,,,,,,,,,,,,,,right,0.757,,,,,,,,0,3,3,7,1,,
,,,,,,,stim2/pa-25.wav,5d159d0a8078020016aa60b9,2021-01-20_15h32.54.837,Spanish_step2,2020.2.3,Win32,60,,,,,,,,,,,,,,,,,right,0.547,,,,,,,,0,4,4,14,1,,
,,,,,,,stim2/pa-20.wav,5d159d0a8078020016aa60b9,2021-01-20_15h32.54.837,Spanish_step2,2020.2.3,Win32,60,,,,,,,,,,,,,,,,,right,0.454,,,,,,,,0,5,5,13,1,,
,,,,,,,stim2/pa-10.wav,5d159d0a8078020016aa60b9,2021-01-20_15h32.54.837,Spanish_step2,2020.2.3,Win32,60,,,,,,,,,,,,,,,,,right,0.529,,,,,,,,0,6,6,11,1,,
,,,,,,,stim2/pa+25.wav,5d159d0a8078020016aa60b9,2021-01-20_15h32.54.837,Spanish_step2,2020.2.3,Win32,60,,,,,,,,,,,,,,,,,left,1.05,,,,,,,,0,7,7,4,1,,
,,,,,,,stim2/pa+10.wav,5d159d0a8078020016aa60b9,2021-01-20_15h32.54.837,Spanish_step2,2020.2.3,Win32,60,,,,,,,,,,,,,,,,,left,0.664,,,,,,,,0,8,8,1,1,,
,,,,,,,stim2/pa+05.wav,5d159d0a8078020016aa60b9,2021-01-20_15h32.54.837,Spanish_step2,2020.2.3,Win32,60,,,,,,,,,,,,,,,,,left,0.59,,,,,,,,0,9,9,0,1,,
,,,,,,,stim2/pa-35.wav,5d159d0a8078020016aa60b9,2021-01-20_15h32.54.837,Spanish_step2,2020.2.3,Win32,60,,,,,,,,,,,,,,,,,right,0.664,,,,,,,,0,10,10,16,1,,
,,,,,,,stim2/pa-15.wav,5d159d0a8078020016aa60b9,2021-01-20_15h32.54.837,Spanish_step2,2020.2.3,Win32,60,,,,,,,,,,,,,,,,,right,0.457,,,,,,,,0,11,11,12,1,,
,,,,,,,stim2/pa+35.wav,5d159d0a8078020016aa60b9,2021-01-20_15h32.54.837,Spanish_step2,2020.2.3,Win32,60,,,,,,,,,,,,,,,,,right,0.739,,,,,,,,0,12,12,6,1,,
,,,,,,,stim2/pa+50.wav,5d159d0a8078020016aa60b9,2021-01-20_15h32.54.837,Spanish_step2,2020.2.3,Win32,60,,,,,,,,,,,,,,,,,right,0.919,,,,,,,,0,13,13,9,1,,
,,,,,,,stim2/pa-05.wav,5d159d0a8078020016aa60b9,2021-01-20_15h32.54.837,Spanish_step2,2020.2.3,Win32,60,,,,,,,,,,,,,,,,,left,0.492,,,,,,,,0,14,14,10,1,,
,,,,,,,stim2/pa+15.wav,5d159d0a8078020016aa60b9,2021-01-20_15h32.54.837,Spanish_step2,2020.2.3,Win32,60,,,,,,,,,,,,,,,,,left,0.539,,,,,,,,0,15,15,2,1,,
,,,,,,,stim2/pa+20.wav,5d159d0a8078020016aa60b9,2021-01-20_15h32.54.837,Spanish_step2,2020.2.3,Win32,60,,,,,,,,,,,,,,,,,left,0.725,,,,,,,,0,16,16,3,1,,
,,,,,,,stim2/pa-15.wav,5d159d0a8078020016aa60b9,2021-01-20_15h32.54.837,Spanish_step2,2020.2.3,Win32,60,,,,,,,,,,,,,,,,,right,0.501,,,,,,,,1,0,17,12,1,,
,,,,,,,stim2/pa+25.wav,5d159d0a8078020016aa60b9,2021-01-20_15h32.54.837,Spanish_step2,2020.2.3,Win32,60,,,,,,,,,,,,,,,,,right,0.802,,,,,,,,1,1,18,4,1,,
,,,,,,,stim2/pa-35.wav,5d159d0a8078020016aa60b9,2021-01-20_15h32.54.837,Spanish_step2,2020.2.3,Win32,60,,,,,,,,,,,,,,,,,left,0.472,,,,,,,,1,2,19,16,1,,
,,,,,,,stim2/pa+05.wav,5d159d0a8078020016aa60b9,2021-01-20_15h32.54.837,Spanish_step2,2020.2.3,Win32,60,,,,,,,,,,,,,,,,,left,1.1,,,,,,,,1,3,20,0,1,,
,,,,,,,stim2/pa+10.wav,5d159d0a8078020016aa60b9,2021-01-20_15h32.54.837,Spanish_step2,2020.2.3,Win32,60,,,,,,,,,,,,,,,,,left,0.582,,,,,,,,1,4,21,1,1,,
,,,,,,,stim2/pa+20.wav,5d159d0a8078020016aa60b9,2021-01-20_15h32.54.837,Spanish_step2,2020.2.3,Win32,60,,,,,,,,,,,,,,,,,left,0.737,,,,,,,,1,5,22,3,1,,
,,,,,,,stim2/pa+40.wav,5d159d0a8078020016aa60b9,2021-01-20_15h32.54.837,Spanish_step2,2020.2.3,Win32,60,,,,,,,,,,,,,,,,,left,1.469,,,,,,,,1,6,23,7,1,,
,,,,,,,stim2/pa+35.wav,5d159d0a8078020016aa60b9,2021-01-20_15h32.54.837,Spanish_step2,2020.2.3,Win32,60,,,,,,,,,,,,,,,,,left,0.608,,,,,,,,1,7,24,6,1,,
,,,,,,,stim2/pa-05.wav,5d159d0a8078020016aa60b9,2021-01-20_15h32.54.837,Spanish_step2,2020.2.3,Win32,60,,,,,,,,,,,,,,,,,left,0.468,,,,,,,,1,8,25,10,1,,
,,,,,,,stim2/pa+30.wav,5d159d0a8078020016aa60b9,2021-01-20_15h32.54.837,Spanish_step2,2020.2.3,Win32,60,,,,,,,,,,,,,,,,,left,1.669,,,,,,,,1,9,26,5,1,,
,,,,,,,stim2/pa-30.wav,5d159d0a8078020016aa60b9,2021-01-20_15h32.54.837,Spanish_step2,2020.2.3,Win32,60,,,,,,,,,,,,,,,,,right,0.47,,,,,,,,1,10,27,15,1,,
,,,,,,,stim2/pa-25.wav,5d159d0a8078020016aa60b9,2021-01-20_15h32.54.837,Spanish_step2,2020.2.3,Win32,60,,,,,,,,,,,,,,,,,right,0.525,,,,,,,,1,11,28,14,1,,
,,,,,,,stim2/pa+15.wav,5d159d0a8078020016aa60b9,2021-01-20_15h32.54.837,Spanish_step2,2020.2.3,Win32,60,,,,,,,,,,,,,,,,,left,0.602,,,,,,,,1,12,29,2,1,,
,,,,,,,stim2/pa-10.wav,5d159d0a8078020016aa60b9,2021-01-20_15h32.54.837,Spanish_step2,2020.2.3,Win32,60,,,,,,,,,,,,,,,,,right,0.508,,,,,,,,1,13,30,11,1,,
,,,,,,,stim2/pa+50.wav,5d159d0a8078020016aa60b9,2021-01-20_15h32.54.837,Spanish_step2,2020.2.3,Win32,60,,,,,,,,,,,,,,,,,left,0.737,,,,,,,,1,14,31,9,1,,
,,,,,,,stim2/pa-20.wav,5d159d0a8078020016aa60b9,2021-01-20_15h32.54.837,Spanish_step2,2020.2.3,Win32,60,,,,,,,,,,,,,,,,,right,0.505,,,,,,,,1,15,32,13,1,,
,,,,,,,stim2/pa+45.wav,5d159d0a8078020016aa60b9,2021-01-20_15h32.54.837,Spanish_step2,2020.2.3,Win32,60,,,,,,,,,,,,,,,,,left,0.681,,,,,,,,1,16,33,8,1,,
,,,,,,,,5d159d0a8078020016aa60b9,2021-01-20_15h32.54.837,Spanish_step2,2020.2.3,Win32,60,,,,,,,,,,,,,,,,,,,,,,,,,,,,,,,space,17.819
