resp.keys,resp.rt,trials.thisRepN,trials.thisTrialN,trials.thisN,trials.thisIndex,trials.ran,stimuli,participant,date,expName,psychopyVersion,OS,frameRate,gotResponse.keys,gotResponse.rt,resp_2.keys,resp_2.rt,trials_2.thisRepN,trials_2.thisTrialN,trials_2.thisN,trials_2.thisIndex,trials_2.ran,key_resp_3.keys,key_resp_3.corr,key_resp_3.rt,trials_4.thisRepN,trials_4.thisTrialN,trials_4.thisN,trials_4.thisIndex,trials_4.ran,resp_3.keys,resp_3.rt,trials_3.thisRepN,trials_3.thisTrialN,trials_3.thisN,trials_3.thisIndex,trials_3.ran,key_resp_2.keys,key_resp_2.rt,trials_5.thisRepN,trials_5.thisTrialN,trials_5.thisN,trials_5.thisIndex,trials_5.ran,key_resp.keys,key_resp.rt
left,2.54,0,0,0,0,1,stim/VC_01.wav,5eb5cb8ddef42c4ad1456dd9,2021-02-24_22h18.27.298,English_step1,2020.2.3,Win32,60,,,,,,,,,,,,,,,,,,,,,,,,,,,,,,,,,
right,1.113,0,1,1,1,1,stim/VC_11.wav,5eb5cb8ddef42c4ad1456dd9,2021-02-24_22h18.27.298,English_step1,2020.2.3,Win32,60,,,,,,,,,,,,,,,,,,,,,,,,,,,,,,,,,
,,,,,,,stim/VC_03.wav,5eb5cb8ddef42c4ad1456dd9,2021-02-24_22h18.27.298,English_step1,2020.2.3,Win32,60,space,2.021,left,1.997,0,0,0,2,1,,,,,,,,,,,,,,,,,,,,,,,,
,,,,,,,stim/VC_02.wav,5eb5cb8ddef42c4ad1456dd9,2021-02-24_22h18.27.298,English_step1,2020.2.3,Win32,60,,,left,0.802,0,1,1,1,1,,,,,,,,,,,,,,,,,,,,,,,,
,,,,,,,stim/VC_10.wav,5eb5cb8ddef42c4ad1456dd9,2021-02-24_22h18.27.298,English_step1,2020.2.3,Win32,60,,,right,1.019,0,2,2,9,1,,,,,,,,,,,,,,,,,,,,,,,,
,,,,,,,stim/VC_08.wav,5eb5cb8ddef42c4ad1456dd9,2021-02-24_22h18.27.298,English_step1,2020.2.3,Win32,60,,,right,0.809,0,3,3,7,1,,,,,,,,,,,,,,,,,,,,,,,,
,,,,,,,stim/VC_09.wav,5eb5cb8ddef42c4ad1456dd9,2021-02-24_22h18.27.298,English_step1,2020.2.3,Win32,60,,,right,0.589,0,4,4,8,1,,,,,,,,,,,,,,,,,,,,,,,,
,,,,,,,stim/VC_01.wav,5eb5cb8ddef42c4ad1456dd9,2021-02-24_22h18.27.298,English_step1,2020.2.3,Win32,60,,,left,0.568,0,5,5,0,1,,,,,,,,,,,,,,,,,,,,,,,,
,,,,,,,stim/VC_07.wav,5eb5cb8ddef42c4ad1456dd9,2021-02-24_22h18.27.298,English_step1,2020.2.3,Win32,60,,,right,0.603,0,6,6,6,1,,,,,,,,,,,,,,,,,,,,,,,,
,,,,,,,stim/VC_11.wav,5eb5cb8ddef42c4ad1456dd9,2021-02-24_22h18.27.298,English_step1,2020.2.3,Win32,60,,,right,0.757,0,7,7,10,1,,,,,,,,,,,,,,,,,,,,,,,,
,,,,,,,stim/VC_06.wav,5eb5cb8ddef42c4ad1456dd9,2021-02-24_22h18.27.298,English_step1,2020.2.3,Win32,60,,,right,0.585,0,8,8,5,1,,,,,,,,,,,,,,,,,,,,,,,,
,,,,,,,stim/VC_04.wav,5eb5cb8ddef42c4ad1456dd9,2021-02-24_22h18.27.298,English_step1,2020.2.3,Win32,60,,,right,1.206,0,9,9,3,1,,,,,,,,,,,,,,,,,,,,,,,,
,,,,,,,stim/VC_05.wav,5eb5cb8ddef42c4ad1456dd9,2021-02-24_22h18.27.298,English_step1,2020.2.3,Win32,60,,,right,0.685,0,10,10,4,1,,,,,,,,,,,,,,,,,,,,,,,,
,,,,,,,stim/VC_05.wav,5eb5cb8ddef42c4ad1456dd9,2021-02-24_22h18.27.298,English_step1,2020.2.3,Win32,60,,,right,0.485,1,0,11,4,1,,,,,,,,,,,,,,,,,,,,,,,,
,,,,,,,stim/VC_10.wav,5eb5cb8ddef42c4ad1456dd9,2021-02-24_22h18.27.298,English_step1,2020.2.3,Win32,60,,,right,0.485,1,1,12,9,1,,,,,,,,,,,,,,,,,,,,,,,,
,,,,,,,stim/VC_04.wav,5eb5cb8ddef42c4ad1456dd9,2021-02-24_22h18.27.298,English_step1,2020.2.3,Win32,60,,,right,0.609,1,2,13,3,1,,,,,,,,,,,,,,,,,,,,,,,,
,,,,,,,stim/VC_11.wav,5eb5cb8ddef42c4ad1456dd9,2021-02-24_22h18.27.298,English_step1,2020.2.3,Win32,60,,,right,0.723,1,3,14,10,1,,,,,,,,,,,,,,,,,,,,,,,,
,,,,,,,stim/VC_02.wav,5eb5cb8ddef42c4ad1456dd9,2021-02-24_22h18.27.298,English_step1,2020.2.3,Win32,60,,,left,0.601,1,4,15,1,1,,,,,,,,,,,,,,,,,,,,,,,,
,,,,,,,stim/VC_08.wav,5eb5cb8ddef42c4ad1456dd9,2021-02-24_22h18.27.298,English_step1,2020.2.3,Win32,60,,,right,0.652,1,5,16,7,1,,,,,,,,,,,,,,,,,,,,,,,,
,,,,,,,stim/VC_09.wav,5eb5cb8ddef42c4ad1456dd9,2021-02-24_22h18.27.298,English_step1,2020.2.3,Win32,60,,,right,0.735,1,6,17,8,1,,,,,,,,,,,,,,,,,,,,,,,,
,,,,,,,stim/VC_07.wav,5eb5cb8ddef42c4ad1456dd9,2021-02-24_22h18.27.298,English_step1,2020.2.3,Win32,60,,,right,0.526,1,7,18,6,1,,,,,,,,,,,,,,,,,,,,,,,,
,,,,,,,stim/VC_06.wav,5eb5cb8ddef42c4ad1456dd9,2021-02-24_22h18.27.298,English_step1,2020.2.3,Win32,60,,,right,1.523,1,8,19,5,1,,,,,,,,,,,,,,,,,,,,,,,,
,,,,,,,stim/VC_01.wav,5eb5cb8ddef42c4ad1456dd9,2021-02-24_22h18.27.298,English_step1,2020.2.3,Win32,60,,,left,0.624,1,9,20,0,1,,,,,,,,,,,,,,,,,,,,,,,,
,,,,,,,stim/VC_03.wav,5eb5cb8ddef42c4ad1456dd9,2021-02-24_22h18.27.298,English_step1,2020.2.3,Win32,60,,,left,1.146,1,10,21,2,1,,,,,,,,,,,,,,,,,,,,,,,,
,,,,,,,stim/VC_03.wav,5eb5cb8ddef42c4ad1456dd9,2021-02-24_22h18.27.298,English_step1,2020.2.3,Win32,60,,,right,2.321,2,0,22,2,1,,,,,,,,,,,,,,,,,,,,,,,,
,,,,,,,stim/VC_04.wav,5eb5cb8ddef42c4ad1456dd9,2021-02-24_22h18.27.298,English_step1,2020.2.3,Win32,60,,,right,0.702,2,1,23,3,1,,,,,,,,,,,,,,,,,,,,,,,,
,,,,,,,stim/VC_10.wav,5eb5cb8ddef42c4ad1456dd9,2021-02-24_22h18.27.298,English_step1,2020.2.3,Win32,60,,,right,0.883,2,2,24,9,1,,,,,,,,,,,,,,,,,,,,,,,,
,,,,,,,stim/VC_01.wav,5eb5cb8ddef42c4ad1456dd9,2021-02-24_22h18.27.298,English_step1,2020.2.3,Win32,60,,,left,0.903,2,3,25,0,1,,,,,,,,,,,,,,,,,,,,,,,,
,,,,,,,stim/VC_06.wav,5eb5cb8ddef42c4ad1456dd9,2021-02-24_22h18.27.298,English_step1,2020.2.3,Win32,60,,,right,1.157,2,4,26,5,1,,,,,,,,,,,,,,,,,,,,,,,,
,,,,,,,stim/VC_11.wav,5eb5cb8ddef42c4ad1456dd9,2021-02-24_22h18.27.298,English_step1,2020.2.3,Win32,60,,,right,8.408,2,5,27,10,1,,,,,,,,,,,,,,,,,,,,,,,,
,,,,,,,stim/VC_02.wav,5eb5cb8ddef42c4ad1456dd9,2021-02-24_22h18.27.298,English_step1,2020.2.3,Win32,60,,,left,0.651,2,6,28,1,1,,,,,,,,,,,,,,,,,,,,,,,,
,,,,,,,stim/VC_08.wav,5eb5cb8ddef42c4ad1456dd9,2021-02-24_22h18.27.298,English_step1,2020.2.3,Win32,60,,,right,0.519,2,7,29,7,1,,,,,,,,,,,,,,,,,,,,,,,,
,,,,,,,stim/VC_07.wav,5eb5cb8ddef42c4ad1456dd9,2021-02-24_22h18.27.298,English_step1,2020.2.3,Win32,60,,,right,0.553,2,8,30,6,1,,,,,,,,,,,,,,,,,,,,,,,,
,,,,,,,stim/VC_05.wav,5eb5cb8ddef42c4ad1456dd9,2021-02-24_22h18.27.298,English_step1,2020.2.3,Win32,60,,,right,0.98,2,9,31,4,1,,,,,,,,,,,,,,,,,,,,,,,,
,,,,,,,stim/VC_09.wav,5eb5cb8ddef42c4ad1456dd9,2021-02-24_22h18.27.298,English_step1,2020.2.3,Win32,60,,,right,0.607,2,10,32,8,1,,,,,,,,,,,,,,,,,,,,,,,,
,,,,,,,stim/VC_01.wav,5eb5cb8ddef42c4ad1456dd9,2021-02-24_22h18.27.298,English_step1,2020.2.3,Win32,60,,,left,0.809,,,,,,4,0,3.488,0,0,0,0,1,,,,,,,,,,,,,,,,
,,,,,,,stim/VC_04.wav,5eb5cb8ddef42c4ad1456dd9,2021-02-24_22h18.27.298,English_step1,2020.2.3,Win32,60,,,right,0.684,,,,,,,,,0,1,1,3,1,,,,,,,,,,,,,,,,
,,,,,,,stim/VC_10.wav,5eb5cb8ddef42c4ad1456dd9,2021-02-24_22h18.27.298,English_step1,2020.2.3,Win32,60,,,right,0.61,,,,,,,,,0,2,2,9,1,,,,,,,,,,,,,,,,
,,,,,,,stim/VC_07.wav,5eb5cb8ddef42c4ad1456dd9,2021-02-24_22h18.27.298,English_step1,2020.2.3,Win32,60,,,right,0.508,,,,,,,,,0,3,3,6,1,,,,,,,,,,,,,,,,
,,,,,,,stim/VC_06.wav,5eb5cb8ddef42c4ad1456dd9,2021-02-24_22h18.27.298,English_step1,2020.2.3,Win32,60,,,right,0.468,,,,,,,,,0,4,4,5,1,,,,,,,,,,,,,,,,
,,,,,,,stim/VC_08.wav,5eb5cb8ddef42c4ad1456dd9,2021-02-24_22h18.27.298,English_step1,2020.2.3,Win32,60,,,right,0.442,,,,,,,,,0,5,5,7,1,,,,,,,,,,,,,,,,
,,,,,,,stim/VC_09.wav,5eb5cb8ddef42c4ad1456dd9,2021-02-24_22h18.27.298,English_step1,2020.2.3,Win32,60,,,right,0.45,,,,,,,,,0,6,6,8,1,,,,,,,,,,,,,,,,
,,,,,,,stim/VC_11.wav,5eb5cb8ddef42c4ad1456dd9,2021-02-24_22h18.27.298,English_step1,2020.2.3,Win32,60,,,right,0.476,,,,,,,,,0,7,7,10,1,,,,,,,,,,,,,,,,
,,,,,,,stim/VC_02.wav,5eb5cb8ddef42c4ad1456dd9,2021-02-24_22h18.27.298,English_step1,2020.2.3,Win32,60,,,left,0.546,,,,,,,,,0,8,8,1,1,,,,,,,,,,,,,,,,
,,,,,,,stim/VC_03.wav,5eb5cb8ddef42c4ad1456dd9,2021-02-24_22h18.27.298,English_step1,2020.2.3,Win32,60,,,left,0.663,,,,,,,,,0,9,9,2,1,,,,,,,,,,,,,,,,
,,,,,,,stim/VC_05.wav,5eb5cb8ddef42c4ad1456dd9,2021-02-24_22h18.27.298,English_step1,2020.2.3,Win32,60,,,right,0.608,,,,,,,,,0,10,10,4,1,,,,,,,,,,,,,,,,
,,,,,,,stim/VC_11.wav,5eb5cb8ddef42c4ad1456dd9,2021-02-24_22h18.27.298,English_step1,2020.2.3,Win32,60,,,right,0.635,,,,,,,,,1,0,11,10,1,,,,,,,,,,,,,,,,
,,,,,,,stim/VC_10.wav,5eb5cb8ddef42c4ad1456dd9,2021-02-24_22h18.27.298,English_step1,2020.2.3,Win32,60,,,right,0.469,,,,,,,,,1,1,12,9,1,,,,,,,,,,,,,,,,
,,,,,,,stim/VC_01.wav,5eb5cb8ddef42c4ad1456dd9,2021-02-24_22h18.27.298,English_step1,2020.2.3,Win32,60,,,left,0.546,,,,,,,,,1,2,13,0,1,,,,,,,,,,,,,,,,
,,,,,,,stim/VC_09.wav,5eb5cb8ddef42c4ad1456dd9,2021-02-24_22h18.27.298,English_step1,2020.2.3,Win32,60,,,right,0.72,,,,,,,,,1,3,14,8,1,,,,,,,,,,,,,,,,
,,,,,,,stim/VC_02.wav,5eb5cb8ddef42c4ad1456dd9,2021-02-24_22h18.27.298,English_step1,2020.2.3,Win32,60,,,left,0.772,,,,,,,,,1,4,15,1,1,,,,,,,,,,,,,,,,
,,,,,,,stim/VC_05.wav,5eb5cb8ddef42c4ad1456dd9,2021-02-24_22h18.27.298,English_step1,2020.2.3,Win32,60,,,right,0.727,,,,,,,,,1,5,16,4,1,,,,,,,,,,,,,,,,
,,,,,,,stim/VC_03.wav,5eb5cb8ddef42c4ad1456dd9,2021-02-24_22h18.27.298,English_step1,2020.2.3,Win32,60,,,right,1.181,,,,,,,,,1,6,17,2,1,,,,,,,,,,,,,,,,
,,,,,,,stim/VC_04.wav,5eb5cb8ddef42c4ad1456dd9,2021-02-24_22h18.27.298,English_step1,2020.2.3,Win32,60,,,right,1.449,,,,,,,,,1,7,18,3,1,,,,,,,,,,,,,,,,
,,,,,,,stim/VC_08.wav,5eb5cb8ddef42c4ad1456dd9,2021-02-24_22h18.27.298,English_step1,2020.2.3,Win32,60,,,right,0.808,,,,,,,,,1,8,19,7,1,,,,,,,,,,,,,,,,
,,,,,,,stim/VC_06.wav,5eb5cb8ddef42c4ad1456dd9,2021-02-24_22h18.27.298,English_step1,2020.2.3,Win32,60,,,right,0.685,,,,,,,,,1,9,20,5,1,,,,,,,,,,,,,,,,
,,,,,,,stim/VC_07.wav,5eb5cb8ddef42c4ad1456dd9,2021-02-24_22h18.27.298,English_step1,2020.2.3,Win32,60,,,right,0.562,,,,,,,,,1,10,21,6,1,,,,,,,,,,,,,,,,
,,,,,,,stim2/pa-20.wav,5eb5cb8ddef42c4ad1456dd9,2021-02-24_22h18.27.298,English_step1,2020.2.3,Win32,60,,,,,,,,,,,,,,,,,,right,2.657,0,0,0,13,1,,,,,,,,,
,,,,,,,stim2/pa+40.wav,5eb5cb8ddef42c4ad1456dd9,2021-02-24_22h18.27.298,English_step1,2020.2.3,Win32,60,,,,,,,,,,,,,,,,,,left,0.508,0,1,1,7,1,,,,,,,,,
,,,,,,,stim2/pa+45.wav,5eb5cb8ddef42c4ad1456dd9,2021-02-24_22h18.27.298,English_step1,2020.2.3,Win32,60,,,,,,,,,,,,,,,,,,left,0.545,0,2,2,8,1,,,,,,,,,
,,,,,,,stim2/pa+25.wav,5eb5cb8ddef42c4ad1456dd9,2021-02-24_22h18.27.298,English_step1,2020.2.3,Win32,60,,,,,,,,,,,,,,,,,,left,0.502,0,3,3,4,1,,,,,,,,,
,,,,,,,stim2/pa-15.wav,5eb5cb8ddef42c4ad1456dd9,2021-02-24_22h18.27.298,English_step1,2020.2.3,Win32,60,,,,,,,,,,,,,,,,,,right,0.484,0,4,4,12,1,,,,,,,,,
,,,,,,,stim2/pa-25.wav,5eb5cb8ddef42c4ad1456dd9,2021-02-24_22h18.27.298,English_step1,2020.2.3,Win32,60,,,,,,,,,,,,,,,,,,right,0.469,0,5,5,14,1,,,,,,,,,
,,,,,,,stim2/pa-10.wav,5eb5cb8ddef42c4ad1456dd9,2021-02-24_22h18.27.298,English_step1,2020.2.3,Win32,60,,,,,,,,,,,,,,,,,,right,0.408,0,6,6,11,1,,,,,,,,,
,,,,,,,stim2/pa-35.wav,5eb5cb8ddef42c4ad1456dd9,2021-02-24_22h18.27.298,English_step1,2020.2.3,Win32,60,,,,,,,,,,,,,,,,,,right,0.452,0,7,7,16,1,,,,,,,,,
,,,,,,,stim2/pa+15.wav,5eb5cb8ddef42c4ad1456dd9,2021-02-24_22h18.27.298,English_step1,2020.2.3,Win32,60,,,,,,,,,,,,,,,,,,left,0.435,0,8,8,2,1,,,,,,,,,
,,,,,,,stim2/pa-05.wav,5eb5cb8ddef42c4ad1456dd9,2021-02-24_22h18.27.298,English_step1,2020.2.3,Win32,60,,,,,,,,,,,,,,,,,,left,0.574,0,9,9,10,1,,,,,,,,,
,,,,,,,stim2/pa+10.wav,5eb5cb8ddef42c4ad1456dd9,2021-02-24_22h18.27.298,English_step1,2020.2.3,Win32,60,,,,,,,,,,,,,,,,,,left,0.472,0,10,10,1,1,,,,,,,,,
,,,,,,,stim2/pa-30.wav,5eb5cb8ddef42c4ad1456dd9,2021-02-24_22h18.27.298,English_step1,2020.2.3,Win32,60,,,,,,,,,,,,,,,,,,right,0.496,0,11,11,15,1,,,,,,,,,
,,,,,,,stim2/pa+20.wav,5eb5cb8ddef42c4ad1456dd9,2021-02-24_22h18.27.298,English_step1,2020.2.3,Win32,60,,,,,,,,,,,,,,,,,,left,0.695,0,12,12,3,1,,,,,,,,,
,,,,,,,stim2/pa+30.wav,5eb5cb8ddef42c4ad1456dd9,2021-02-24_22h18.27.298,English_step1,2020.2.3,Win32,60,,,,,,,,,,,,,,,,,,left,0.515,0,13,13,5,1,,,,,,,,,
,,,,,,,stim2/pa+35.wav,5eb5cb8ddef42c4ad1456dd9,2021-02-24_22h18.27.298,English_step1,2020.2.3,Win32,60,,,,,,,,,,,,,,,,,,left,0.458,0,14,14,6,1,,,,,,,,,
,,,,,,,stim2/pa+05.wav,5eb5cb8ddef42c4ad1456dd9,2021-02-24_22h18.27.298,English_step1,2020.2.3,Win32,60,,,,,,,,,,,,,,,,,,left,0.517,0,15,15,0,1,,,,,,,,,
,,,,,,,stim2/pa+50.wav,5eb5cb8ddef42c4ad1456dd9,2021-02-24_22h18.27.298,English_step1,2020.2.3,Win32,60,,,,,,,,,,,,,,,,,,left,0.688,0,16,16,9,1,,,,,,,,,
,,,,,,,stim2/pa+30.wav,5eb5cb8ddef42c4ad1456dd9,2021-02-24_22h18.27.298,English_step1,2020.2.3,Win32,60,,,,,,,,,,,,,,,,,,left,0.727,1,0,17,5,1,,,,,,,,,
,,,,,,,stim2/pa+20.wav,5eb5cb8ddef42c4ad1456dd9,2021-02-24_22h18.27.298,English_step1,2020.2.3,Win32,60,,,,,,,,,,,,,,,,,,left,1.103,1,1,18,3,1,,,,,,,,,
,,,,,,,stim2/pa+45.wav,5eb5cb8ddef42c4ad1456dd9,2021-02-24_22h18.27.298,English_step1,2020.2.3,Win32,60,,,,,,,,,,,,,,,,,,left,0.57,1,2,19,8,1,,,,,,,,,
,,,,,,,stim2/pa-10.wav,5eb5cb8ddef42c4ad1456dd9,2021-02-24_22h18.27.298,English_step1,2020.2.3,Win32,60,,,,,,,,,,,,,,,,,,right,0.582,1,3,20,11,1,,,,,,,,,
,,,,,,,stim2/pa-05.wav,5eb5cb8ddef42c4ad1456dd9,2021-02-24_22h18.27.298,English_step1,2020.2.3,Win32,60,,,,,,,,,,,,,,,,,,right,0.658,1,4,21,10,1,,,,,,,,,
,,,,,,,stim2/pa+05.wav,5eb5cb8ddef42c4ad1456dd9,2021-02-24_22h18.27.298,English_step1,2020.2.3,Win32,60,,,,,,,,,,,,,,,,,,right,1.041,1,5,22,0,1,,,,,,,,,
,,,,,,,stim2/pa-20.wav,5eb5cb8ddef42c4ad1456dd9,2021-02-24_22h18.27.298,English_step1,2020.2.3,Win32,60,,,,,,,,,,,,,,,,,,right,0.609,1,6,23,13,1,,,,,,,,,
,,,,,,,stim2/pa-35.wav,5eb5cb8ddef42c4ad1456dd9,2021-02-24_22h18.27.298,English_step1,2020.2.3,Win32,60,,,,,,,,,,,,,,,,,,right,0.612,1,7,24,16,1,,,,,,,,,
,,,,,,,stim2/pa+35.wav,5eb5cb8ddef42c4ad1456dd9,2021-02-24_22h18.27.298,English_step1,2020.2.3,Win32,60,,,,,,,,,,,,,,,,,,left,0.724,1,8,25,6,1,,,,,,,,,
,,,,,,,stim2/pa-15.wav,5eb5cb8ddef42c4ad1456dd9,2021-02-24_22h18.27.298,English_step1,2020.2.3,Win32,60,,,,,,,,,,,,,,,,,,right,0.721,1,9,26,12,1,,,,,,,,,
,,,,,,,stim2/pa+10.wav,5eb5cb8ddef42c4ad1456dd9,2021-02-24_22h18.27.298,English_step1,2020.2.3,Win32,60,,,,,,,,,,,,,,,,,,left,0.99,1,10,27,1,1,,,,,,,,,
,,,,,,,stim2/pa-25.wav,5eb5cb8ddef42c4ad1456dd9,2021-02-24_22h18.27.298,English_step1,2020.2.3,Win32,60,,,,,,,,,,,,,,,,,,right,0.695,1,11,28,14,1,,,,,,,,,
,,,,,,,stim2/pa+15.wav,5eb5cb8ddef42c4ad1456dd9,2021-02-24_22h18.27.298,English_step1,2020.2.3,Win32,60,,,,,,,,,,,,,,,,,,left,1.02,1,12,29,2,1,,,,,,,,,
,,,,,,,stim2/pa+40.wav,5eb5cb8ddef42c4ad1456dd9,2021-02-24_22h18.27.298,English_step1,2020.2.3,Win32,60,,,,,,,,,,,,,,,,,,left,0.873,1,13,30,7,1,,,,,,,,,
,,,,,,,stim2/pa+25.wav,5eb5cb8ddef42c4ad1456dd9,2021-02-24_22h18.27.298,English_step1,2020.2.3,Win32,60,,,,,,,,,,,,,,,,,,left,0.735,1,14,31,4,1,,,,,,,,,
,,,,,,,stim2/pa+50.wav,5eb5cb8ddef42c4ad1456dd9,2021-02-24_22h18.27.298,English_step1,2020.2.3,Win32,60,,,,,,,,,,,,,,,,,,left,0.756,1,15,32,9,1,,,,,,,,,
,,,,,,,stim2/pa-30.wav,5eb5cb8ddef42c4ad1456dd9,2021-02-24_22h18.27.298,English_step1,2020.2.3,Win32,60,,,,,,,,,,,,,,,,,,right,0.619,1,16,33,15,1,,,,,,,,,
,,,,,,,stim2/pa-20.wav,5eb5cb8ddef42c4ad1456dd9,2021-02-24_22h18.27.298,English_step1,2020.2.3,Win32,60,,,,,,,,,,,,,,,,,,right,0.624,2,0,34,13,1,,,,,,,,,
,,,,,,,stim2/pa-05.wav,5eb5cb8ddef42c4ad1456dd9,2021-02-24_22h18.27.298,English_step1,2020.2.3,Win32,60,,,,,,,,,,,,,,,,,,right,0.684,2,1,35,10,1,,,,,,,,,
,,,,,,,stim2/pa+30.wav,5eb5cb8ddef42c4ad1456dd9,2021-02-24_22h18.27.298,English_step1,2020.2.3,Win32,60,,,,,,,,,,,,,,,,,,left,0.868,2,2,36,5,1,,,,,,,,,
,,,,,,,stim2/pa-30.wav,5eb5cb8ddef42c4ad1456dd9,2021-02-24_22h18.27.298,English_step1,2020.2.3,Win32,60,,,,,,,,,,,,,,,,,,right,0.62,2,3,37,15,1,,,,,,,,,
,,,,,,,stim2/pa+25.wav,5eb5cb8ddef42c4ad1456dd9,2021-02-24_22h18.27.298,English_step1,2020.2.3,Win32,60,,,,,,,,,,,,,,,,,,left,0.818,2,4,38,4,1,,,,,,,,,
,,,,,,,stim2/pa-10.wav,5eb5cb8ddef42c4ad1456dd9,2021-02-24_22h18.27.298,English_step1,2020.2.3,Win32,60,,,,,,,,,,,,,,,,,,right,0.668,2,5,39,11,1,,,,,,,,,
,,,,,,,stim2/pa-35.wav,5eb5cb8ddef42c4ad1456dd9,2021-02-24_22h18.27.298,English_step1,2020.2.3,Win32,60,,,,,,,,,,,,,,,,,,right,0.675,2,6,40,16,1,,,,,,,,,
,,,,,,,stim2/pa-15.wav,5eb5cb8ddef42c4ad1456dd9,2021-02-24_22h18.27.298,English_step1,2020.2.3,Win32,60,,,,,,,,,,,,,,,,,,right,0.579,2,7,41,12,1,,,,,,,,,
,,,,,,,stim2/pa+45.wav,5eb5cb8ddef42c4ad1456dd9,2021-02-24_22h18.27.298,English_step1,2020.2.3,Win32,60,,,,,,,,,,,,,,,,,,left,1.055,2,8,42,8,1,,,,,,,,,
,,,,,,,stim2/pa+05.wav,5eb5cb8ddef42c4ad1456dd9,2021-02-24_22h18.27.298,English_step1,2020.2.3,Win32,60,,,,,,,,,,,,,,,,,,right,0.754,2,9,43,0,1,,,,,,,,,
,,,,,,,stim2/pa+15.wav,5eb5cb8ddef42c4ad1456dd9,2021-02-24_22h18.27.298,English_step1,2020.2.3,Win32,60,,,,,,,,,,,,,,,,,,left,0.583,2,10,44,2,1,,,,,,,,,
,,,,,,,stim2/pa+35.wav,5eb5cb8ddef42c4ad1456dd9,2021-02-24_22h18.27.298,English_step1,2020.2.3,Win32,60,,,,,,,,,,,,,,,,,,left,0.621,2,11,45,6,1,,,,,,,,,
,,,,,,,stim2/pa+10.wav,5eb5cb8ddef42c4ad1456dd9,2021-02-24_22h18.27.298,English_step1,2020.2.3,Win32,60,,,,,,,,,,,,,,,,,,right,0.675,2,12,46,1,1,,,,,,,,,
,,,,,,,stim2/pa+40.wav,5eb5cb8ddef42c4ad1456dd9,2021-02-24_22h18.27.298,English_step1,2020.2.3,Win32,60,,,,,,,,,,,,,,,,,,left,0.66,2,13,47,7,1,,,,,,,,,
,,,,,,,stim2/pa+20.wav,5eb5cb8ddef42c4ad1456dd9,2021-02-24_22h18.27.298,English_step1,2020.2.3,Win32,60,,,,,,,,,,,,,,,,,,left,0.484,2,14,48,3,1,,,,,,,,,
,,,,,,,stim2/pa+50.wav,5eb5cb8ddef42c4ad1456dd9,2021-02-24_22h18.27.298,English_step1,2020.2.3,Win32,60,,,,,,,,,,,,,,,,,,right,0.503,2,15,49,9,1,,,,,,,,,
,,,,,,,stim2/pa-25.wav,5eb5cb8ddef42c4ad1456dd9,2021-02-24_22h18.27.298,English_step1,2020.2.3,Win32,60,,,,,,,,,,,,,,,,,,right,0.825,2,16,50,14,1,,,,,,,,,
,,,,,,,stim2/pa+25.wav,5eb5cb8ddef42c4ad1456dd9,2021-02-24_22h18.27.298,English_step1,2020.2.3,Win32,60,,,,,,,,,,,,,,,,,,left,0.64,,,,,,q,1.916,0,0,0,4,1,,
,,,,,,,stim2/pa+40.wav,5eb5cb8ddef42c4ad1456dd9,2021-02-24_22h18.27.298,English_step1,2020.2.3,Win32,60,,,,,,,,,,,,,,,,,,left,0.681,,,,,,,,0,1,1,7,1,,
,,,,,,,stim2/pa+30.wav,5eb5cb8ddef42c4ad1456dd9,2021-02-24_22h18.27.298,English_step1,2020.2.3,Win32,60,,,,,,,,,,,,,,,,,,left,0.629,,,,,,,,0,2,2,5,1,,
,,,,,,,stim2/pa+35.wav,5eb5cb8ddef42c4ad1456dd9,2021-02-24_22h18.27.298,English_step1,2020.2.3,Win32,60,,,,,,,,,,,,,,,,,,left,0.577,,,,,,,,0,3,3,6,1,,
,,,,,,,stim2/pa-10.wav,5eb5cb8ddef42c4ad1456dd9,2021-02-24_22h18.27.298,English_step1,2020.2.3,Win32,60,,,,,,,,,,,,,,,,,,right,0.601,,,,,,,,0,4,4,11,1,,
,,,,,,,stim2/pa-05.wav,5eb5cb8ddef42c4ad1456dd9,2021-02-24_22h18.27.298,English_step1,2020.2.3,Win32,60,,,,,,,,,,,,,,,,,,right,0.718,,,,,,,,0,5,5,10,1,,
,,,,,,,stim2/pa+15.wav,5eb5cb8ddef42c4ad1456dd9,2021-02-24_22h18.27.298,English_step1,2020.2.3,Win32,60,,,,,,,,,,,,,,,,,,left,0.688,,,,,,,,0,6,6,2,1,,
,,,,,,,stim2/pa+45.wav,5eb5cb8ddef42c4ad1456dd9,2021-02-24_22h18.27.298,English_step1,2020.2.3,Win32,60,,,,,,,,,,,,,,,,,,left,0.69,,,,,,,,0,7,7,8,1,,
,,,,,,,stim2/pa-25.wav,5eb5cb8ddef42c4ad1456dd9,2021-02-24_22h18.27.298,English_step1,2020.2.3,Win32,60,,,,,,,,,,,,,,,,,,right,0.678,,,,,,,,0,8,8,14,1,,
,,,,,,,stim2/pa-30.wav,5eb5cb8ddef42c4ad1456dd9,2021-02-24_22h18.27.298,English_step1,2020.2.3,Win32,60,,,,,,,,,,,,,,,,,,right,0.63,,,,,,,,0,9,9,15,1,,
,,,,,,,stim2/pa+20.wav,5eb5cb8ddef42c4ad1456dd9,2021-02-24_22h18.27.298,English_step1,2020.2.3,Win32,60,,,,,,,,,,,,,,,,,,left,0.538,,,,,,,,0,10,10,3,1,,
,,,,,,,stim2/pa+50.wav,5eb5cb8ddef42c4ad1456dd9,2021-02-24_22h18.27.298,English_step1,2020.2.3,Win32,60,,,,,,,,,,,,,,,,,,left,0.521,,,,,,,,0,11,11,9,1,,
,,,,,,,stim2/pa+05.wav,5eb5cb8ddef42c4ad1456dd9,2021-02-24_22h18.27.298,English_step1,2020.2.3,Win32,60,,,,,,,,,,,,,,,,,,right,0.544,,,,,,,,0,12,12,0,1,,
,,,,,,,stim2/pa+10.wav,5eb5cb8ddef42c4ad1456dd9,2021-02-24_22h18.27.298,English_step1,2020.2.3,Win32,60,,,,,,,,,,,,,,,,,,left,0.556,,,,,,,,0,13,13,1,1,,
,,,,,,,stim2/pa-35.wav,5eb5cb8ddef42c4ad1456dd9,2021-02-24_22h18.27.298,English_step1,2020.2.3,Win32,60,,,,,,,,,,,,,,,,,,right,0.705,,,,,,,,0,14,14,16,1,,
,,,,,,,stim2/pa-20.wav,5eb5cb8ddef42c4ad1456dd9,2021-02-24_22h18.27.298,English_step1,2020.2.3,Win32,60,,,,,,,,,,,,,,,,,,right,0.555,,,,,,,,0,15,15,13,1,,
,,,,,,,stim2/pa-15.wav,5eb5cb8ddef42c4ad1456dd9,2021-02-24_22h18.27.298,English_step1,2020.2.3,Win32,60,,,,,,,,,,,,,,,,,,right,0.561,,,,,,,,0,16,16,12,1,,
,,,,,,,stim2/pa+35.wav,5eb5cb8ddef42c4ad1456dd9,2021-02-24_22h18.27.298,English_step1,2020.2.3,Win32,60,,,,,,,,,,,,,,,,,,left,0.606,,,,,,,,1,0,17,6,1,,
,,,,,,,stim2/pa+45.wav,5eb5cb8ddef42c4ad1456dd9,2021-02-24_22h18.27.298,English_step1,2020.2.3,Win32,60,,,,,,,,,,,,,,,,,,left,0.529,,,,,,,,1,1,18,8,1,,
,,,,,,,stim2/pa-25.wav,5eb5cb8ddef42c4ad1456dd9,2021-02-24_22h18.27.298,English_step1,2020.2.3,Win32,60,,,,,,,,,,,,,,,,,,right,0.502,,,,,,,,1,2,19,14,1,,
,,,,,,,stim2/pa-05.wav,5eb5cb8ddef42c4ad1456dd9,2021-02-24_22h18.27.298,English_step1,2020.2.3,Win32,60,,,,,,,,,,,,,,,,,,right,0.458,,,,,,,,1,3,20,10,1,,
,,,,,,,stim2/pa-10.wav,5eb5cb8ddef42c4ad1456dd9,2021-02-24_22h18.27.298,English_step1,2020.2.3,Win32,60,,,,,,,,,,,,,,,,,,right,0.508,,,,,,,,1,4,21,11,1,,
,,,,,,,stim2/pa-20.wav,5eb5cb8ddef42c4ad1456dd9,2021-02-24_22h18.27.298,English_step1,2020.2.3,Win32,60,,,,,,,,,,,,,,,,,,right,0.56,,,,,,,,1,5,22,13,1,,
,,,,,,,stim2/pa-35.wav,5eb5cb8ddef42c4ad1456dd9,2021-02-24_22h18.27.298,English_step1,2020.2.3,Win32,60,,,,,,,,,,,,,,,,,,right,0.635,,,,,,,,1,6,23,16,1,,
,,,,,,,stim2/pa-30.wav,5eb5cb8ddef42c4ad1456dd9,2021-02-24_22h18.27.298,English_step1,2020.2.3,Win32,60,,,,,,,,,,,,,,,,,,right,1.796,,,,,,,,1,7,24,15,1,,
,,,,,,,stim2/pa+30.wav,5eb5cb8ddef42c4ad1456dd9,2021-02-24_22h18.27.298,English_step1,2020.2.3,Win32,60,,,,,,,,,,,,,,,,,,left,0.465,,,,,,,,1,8,25,5,1,,
,,,,,,,stim2/pa+15.wav,5eb5cb8ddef42c4ad1456dd9,2021-02-24_22h18.27.298,English_step1,2020.2.3,Win32,60,,,,,,,,,,,,,,,,,,left,0.418,,,,,,,,1,9,26,2,1,,
,,,,,,,stim2/pa+20.wav,5eb5cb8ddef42c4ad1456dd9,2021-02-24_22h18.27.298,English_step1,2020.2.3,Win32,60,,,,,,,,,,,,,,,,,,left,0.42,,,,,,,,1,10,27,3,1,,
,,,,,,,stim2/pa+40.wav,5eb5cb8ddef42c4ad1456dd9,2021-02-24_22h18.27.298,English_step1,2020.2.3,Win32,60,,,,,,,,,,,,,,,,,,left,0.506,,,,,,,,1,11,28,7,1,,
,,,,,,,stim2/pa+10.wav,5eb5cb8ddef42c4ad1456dd9,2021-02-24_22h18.27.298,English_step1,2020.2.3,Win32,60,,,,,,,,,,,,,,,,,,left,0.454,,,,,,,,1,12,29,1,1,,
,,,,,,,stim2/pa+50.wav,5eb5cb8ddef42c4ad1456dd9,2021-02-24_22h18.27.298,English_step1,2020.2.3,Win32,60,,,,,,,,,,,,,,,,,,left,0.512,,,,,,,,1,13,30,9,1,,
,,,,,,,stim2/pa-15.wav,5eb5cb8ddef42c4ad1456dd9,2021-02-24_22h18.27.298,English_step1,2020.2.3,Win32,60,,,,,,,,,,,,,,,,,,right,0.453,,,,,,,,1,14,31,12,1,,
,,,,,,,stim2/pa+05.wav,5eb5cb8ddef42c4ad1456dd9,2021-02-24_22h18.27.298,English_step1,2020.2.3,Win32,60,,,,,,,,,,,,,,,,,,right,1.814,,,,,,,,1,15,32,0,1,,
,,,,,,,stim2/pa+25.wav,5eb5cb8ddef42c4ad1456dd9,2021-02-24_22h18.27.298,English_step1,2020.2.3,Win32,60,,,,,,,,,,,,,,,,,,left,0.621,,,,,,,,1,16,33,4,1,,
,,,,,,,,5eb5cb8ddef42c4ad1456dd9,2021-02-24_22h18.27.298,English_step1,2020.2.3,Win32,60,,,,,,,,,,,,,,,,,,,,,,,,,,,,,,,,space,7.514
