resp.keys,resp.rt,trials.thisRepN,trials.thisTrialN,trials.thisN,trials.thisIndex,trials.ran,stimuli,participant,date,expName,psychopyVersion,OS,frameRate,gotResponse.keys,gotResponse.rt,resp_2.keys,resp_2.rt,trials_2.thisRepN,trials_2.thisTrialN,trials_2.thisN,trials_2.thisIndex,trials_2.ran,key_resp_3.keys,key_resp_3.corr,key_resp_3.rt,trials_4.thisRepN,trials_4.thisTrialN,trials_4.thisN,trials_4.thisIndex,trials_4.ran,resp_3.keys,resp_3.rt,trials_3.thisRepN,trials_3.thisTrialN,trials_3.thisN,trials_3.thisIndex,trials_3.ran,key_resp_2.keys,key_resp_2.rt,trials_5.thisRepN,trials_5.thisTrialN,trials_5.thisN,trials_5.thisIndex,trials_5.ran,key_resp.keys,key_resp.rt
right,2.27237,0,0,0,1,1,stim/VC_11.wav,5f3344917a7a0b159bd0c375,2021-01-20_14h56.36.371,English_step1,2020.2.3,Win32,60,,,,,,,,,,,,,,,,,,,,,,,,,,,,,,,,,
left,1.172435,0,1,1,0,1,stim/VC_01.wav,5f3344917a7a0b159bd0c375,2021-01-20_14h56.36.371,English_step1,2020.2.3,Win32,60,,,,,,,,,,,,,,,,,,,,,,,,,,,,,,,,,
,,,,,,,stim/VC_11.wav,5f3344917a7a0b159bd0c375,2021-01-20_14h56.36.371,English_step1,2020.2.3,Win32,60,space,2.974725,right,0.99127,0,0,0,10,1,,,,,,,,,,,,,,,,,,,,,,,,
,,,,,,,stim/VC_02.wav,5f3344917a7a0b159bd0c375,2021-01-20_14h56.36.371,English_step1,2020.2.3,Win32,60,,,left,0.55158,0,1,1,1,1,,,,,,,,,,,,,,,,,,,,,,,,
,,,,,,,stim/VC_04.wav,5f3344917a7a0b159bd0c375,2021-01-20_14h56.36.371,English_step1,2020.2.3,Win32,60,,,left,0.71657,0,2,2,3,1,,,,,,,,,,,,,,,,,,,,,,,,
,,,,,,,stim/VC_08.wav,5f3344917a7a0b159bd0c375,2021-01-20_14h56.36.371,English_step1,2020.2.3,Win32,60,,,right,0.68939,0,3,3,7,1,,,,,,,,,,,,,,,,,,,,,,,,
,,,,,,,stim/VC_09.wav,5f3344917a7a0b159bd0c375,2021-01-20_14h56.36.371,English_step1,2020.2.3,Win32,60,,,right,0.74434,0,4,4,8,1,,,,,,,,,,,,,,,,,,,,,,,,
,,,,,,,stim/VC_03.wav,5f3344917a7a0b159bd0c375,2021-01-20_14h56.36.371,English_step1,2020.2.3,Win32,60,,,left,0.672405,0,5,5,2,1,,,,,,,,,,,,,,,,,,,,,,,,
,,,,,,,stim/VC_07.wav,5f3344917a7a0b159bd0c375,2021-01-20_14h56.36.371,English_step1,2020.2.3,Win32,60,,,right,0.73054,0,6,6,6,1,,,,,,,,,,,,,,,,,,,,,,,,
,,,,,,,stim/VC_06.wav,5f3344917a7a0b159bd0c375,2021-01-20_14h56.36.371,English_step1,2020.2.3,Win32,60,,,right,0.68737,0,7,7,5,1,,,,,,,,,,,,,,,,,,,,,,,,
,,,,,,,stim/VC_10.wav,5f3344917a7a0b159bd0c375,2021-01-20_14h56.36.371,English_step1,2020.2.3,Win32,60,,,right,1.00168,0,8,8,9,1,,,,,,,,,,,,,,,,,,,,,,,,
,,,,,,,stim/VC_05.wav,5f3344917a7a0b159bd0c375,2021-01-20_14h56.36.371,English_step1,2020.2.3,Win32,60,,,left,1.347265,0,9,9,4,1,,,,,,,,,,,,,,,,,,,,,,,,
,,,,,,,stim/VC_01.wav,5f3344917a7a0b159bd0c375,2021-01-20_14h56.36.371,English_step1,2020.2.3,Win32,60,,,left,0.64049,0,10,10,0,1,,,,,,,,,,,,,,,,,,,,,,,,
,,,,,,,stim/VC_09.wav,5f3344917a7a0b159bd0c375,2021-01-20_14h56.36.371,English_step1,2020.2.3,Win32,60,,,right,0.56851,1,0,11,8,1,,,,,,,,,,,,,,,,,,,,,,,,
,,,,,,,stim/VC_03.wav,5f3344917a7a0b159bd0c375,2021-01-20_14h56.36.371,English_step1,2020.2.3,Win32,60,,,left,0.80063,1,1,12,2,1,,,,,,,,,,,,,,,,,,,,,,,,
,,,,,,,stim/VC_02.wav,5f3344917a7a0b159bd0c375,2021-01-20_14h56.36.371,English_step1,2020.2.3,Win32,60,,,left,0.62093,1,2,13,1,1,,,,,,,,,,,,,,,,,,,,,,,,
,,,,,,,stim/VC_08.wav,5f3344917a7a0b159bd0c375,2021-01-20_14h56.36.371,English_step1,2020.2.3,Win32,60,,,right,0.430905,1,3,14,7,1,,,,,,,,,,,,,,,,,,,,,,,,
,,,,,,,stim/VC_07.wav,5f3344917a7a0b159bd0c375,2021-01-20_14h56.36.371,English_step1,2020.2.3,Win32,60,,,right,0.458715,1,4,15,6,1,,,,,,,,,,,,,,,,,,,,,,,,
,,,,,,,stim/VC_06.wav,5f3344917a7a0b159bd0c375,2021-01-20_14h56.36.371,English_step1,2020.2.3,Win32,60,,,right,0.782335,1,5,16,5,1,,,,,,,,,,,,,,,,,,,,,,,,
,,,,,,,stim/VC_11.wav,5f3344917a7a0b159bd0c375,2021-01-20_14h56.36.371,English_step1,2020.2.3,Win32,60,,,right,0.669805,1,6,17,10,1,,,,,,,,,,,,,,,,,,,,,,,,
,,,,,,,stim/VC_01.wav,5f3344917a7a0b159bd0c375,2021-01-20_14h56.36.371,English_step1,2020.2.3,Win32,60,,,left,0.538265,1,7,18,0,1,,,,,,,,,,,,,,,,,,,,,,,,
,,,,,,,stim/VC_04.wav,5f3344917a7a0b159bd0c375,2021-01-20_14h56.36.371,English_step1,2020.2.3,Win32,60,,,left,0.41602,1,8,19,3,1,,,,,,,,,,,,,,,,,,,,,,,,
,,,,,,,stim/VC_05.wav,5f3344917a7a0b159bd0c375,2021-01-20_14h56.36.371,English_step1,2020.2.3,Win32,60,,,left,0.46205,1,9,20,4,1,,,,,,,,,,,,,,,,,,,,,,,,
,,,,,,,stim/VC_10.wav,5f3344917a7a0b159bd0c375,2021-01-20_14h56.36.371,English_step1,2020.2.3,Win32,60,,,right,0.59279,1,10,21,9,1,,,,,,,,,,,,,,,,,,,,,,,,
,,,,,,,stim/VC_10.wav,5f3344917a7a0b159bd0c375,2021-01-20_14h56.36.371,English_step1,2020.2.3,Win32,60,,,right,0.59378,2,0,22,9,1,,,,,,,,,,,,,,,,,,,,,,,,
,,,,,,,stim/VC_08.wav,5f3344917a7a0b159bd0c375,2021-01-20_14h56.36.371,English_step1,2020.2.3,Win32,60,,,right,0.671255,2,1,23,7,1,,,,,,,,,,,,,,,,,,,,,,,,
,,,,,,,stim/VC_06.wav,5f3344917a7a0b159bd0c375,2021-01-20_14h56.36.371,English_step1,2020.2.3,Win32,60,,,right,0.48429,2,2,24,5,1,,,,,,,,,,,,,,,,,,,,,,,,
,,,,,,,stim/VC_07.wav,5f3344917a7a0b159bd0c375,2021-01-20_14h56.36.371,English_step1,2020.2.3,Win32,60,,,right,0.443045,2,3,25,6,1,,,,,,,,,,,,,,,,,,,,,,,,
,,,,,,,stim/VC_01.wav,5f3344917a7a0b159bd0c375,2021-01-20_14h56.36.371,English_step1,2020.2.3,Win32,60,,,left,0.658665,2,4,26,0,1,,,,,,,,,,,,,,,,,,,,,,,,
,,,,,,,stim/VC_11.wav,5f3344917a7a0b159bd0c375,2021-01-20_14h56.36.371,English_step1,2020.2.3,Win32,60,,,right,0.702945,2,5,27,10,1,,,,,,,,,,,,,,,,,,,,,,,,
,,,,,,,stim/VC_09.wav,5f3344917a7a0b159bd0c375,2021-01-20_14h56.36.371,English_step1,2020.2.3,Win32,60,,,right,0.44674,2,6,28,8,1,,,,,,,,,,,,,,,,,,,,,,,,
,,,,,,,stim/VC_04.wav,5f3344917a7a0b159bd0c375,2021-01-20_14h56.36.371,English_step1,2020.2.3,Win32,60,,,left,2.00111,2,7,29,3,1,,,,,,,,,,,,,,,,,,,,,,,,
,,,,,,,stim/VC_02.wav,5f3344917a7a0b159bd0c375,2021-01-20_14h56.36.371,English_step1,2020.2.3,Win32,60,,,left,0.656795,2,8,30,1,1,,,,,,,,,,,,,,,,,,,,,,,,
,,,,,,,stim/VC_05.wav,5f3344917a7a0b159bd0c375,2021-01-20_14h56.36.371,English_step1,2020.2.3,Win32,60,,,right,0.567185,2,9,31,4,1,,,,,,,,,,,,,,,,,,,,,,,,
,,,,,,,stim/VC_03.wav,5f3344917a7a0b159bd0c375,2021-01-20_14h56.36.371,English_step1,2020.2.3,Win32,60,,,left,0.636055,2,10,32,2,1,,,,,,,,,,,,,,,,,,,,,,,,
,,,,,,,stim/VC_10.wav,5f3344917a7a0b159bd0c375,2021-01-20_14h56.36.371,English_step1,2020.2.3,Win32,60,,,right,1.26196,,,,,,4,0,4.267815,0,0,0,9,1,,,,,,,,,,,,,,,,
,,,,,,,stim/VC_09.wav,5f3344917a7a0b159bd0c375,2021-01-20_14h56.36.371,English_step1,2020.2.3,Win32,60,,,right,0.66521,,,,,,,,,0,1,1,8,1,,,,,,,,,,,,,,,,
,,,,,,,stim/VC_06.wav,5f3344917a7a0b159bd0c375,2021-01-20_14h56.36.371,English_step1,2020.2.3,Win32,60,,,right,0.49358,,,,,,,,,0,2,2,5,1,,,,,,,,,,,,,,,,
,,,,,,,stim/VC_11.wav,5f3344917a7a0b159bd0c375,2021-01-20_14h56.36.371,English_step1,2020.2.3,Win32,60,,,right,0.479545,,,,,,,,,0,3,3,10,1,,,,,,,,,,,,,,,,
,,,,,,,stim/VC_01.wav,5f3344917a7a0b159bd0c375,2021-01-20_14h56.36.371,English_step1,2020.2.3,Win32,60,,,left,1.159215,,,,,,,,,0,4,4,0,1,,,,,,,,,,,,,,,,
,,,,,,,stim/VC_08.wav,5f3344917a7a0b159bd0c375,2021-01-20_14h56.36.371,English_step1,2020.2.3,Win32,60,,,right,0.9719,,,,,,,,,0,5,5,7,1,,,,,,,,,,,,,,,,
,,,,,,,stim/VC_03.wav,5f3344917a7a0b159bd0c375,2021-01-20_14h56.36.371,English_step1,2020.2.3,Win32,60,,,left,0.944075,,,,,,,,,0,6,6,2,1,,,,,,,,,,,,,,,,
,,,,,,,stim/VC_04.wav,5f3344917a7a0b159bd0c375,2021-01-20_14h56.36.371,English_step1,2020.2.3,Win32,60,,,left,0.5073,,,,,,,,,0,7,7,3,1,,,,,,,,,,,,,,,,
,,,,,,,stim/VC_07.wav,5f3344917a7a0b159bd0c375,2021-01-20_14h56.36.371,English_step1,2020.2.3,Win32,60,,,right,0.90476,,,,,,,,,0,8,8,6,1,,,,,,,,,,,,,,,,
,,,,,,,stim/VC_02.wav,5f3344917a7a0b159bd0c375,2021-01-20_14h56.36.371,English_step1,2020.2.3,Win32,60,,,left,0.65615,,,,,,,,,0,9,9,1,1,,,,,,,,,,,,,,,,
,,,,,,,stim/VC_05.wav,5f3344917a7a0b159bd0c375,2021-01-20_14h56.36.371,English_step1,2020.2.3,Win32,60,,,right,0.90875,,,,,,,,,0,10,10,4,1,,,,,,,,,,,,,,,,
,,,,,,,stim/VC_03.wav,5f3344917a7a0b159bd0c375,2021-01-20_14h56.36.371,English_step1,2020.2.3,Win32,60,,,left,0.615675,,,,,,,,,1,0,11,2,1,,,,,,,,,,,,,,,,
,,,,,,,stim/VC_10.wav,5f3344917a7a0b159bd0c375,2021-01-20_14h56.36.371,English_step1,2020.2.3,Win32,60,,,right,0.69776,,,,,,,,,1,1,12,9,1,,,,,,,,,,,,,,,,
,,,,,,,stim/VC_11.wav,5f3344917a7a0b159bd0c375,2021-01-20_14h56.36.371,English_step1,2020.2.3,Win32,60,,,right,0.38088,,,,,,,,,1,2,13,10,1,,,,,,,,,,,,,,,,
,,,,,,,stim/VC_04.wav,5f3344917a7a0b159bd0c375,2021-01-20_14h56.36.371,English_step1,2020.2.3,Win32,60,,,left,0.549775,,,,,,,,,1,3,14,3,1,,,,,,,,,,,,,,,,
,,,,,,,stim/VC_09.wav,5f3344917a7a0b159bd0c375,2021-01-20_14h56.36.371,English_step1,2020.2.3,Win32,60,,,right,0.69138,,,,,,,,,1,4,15,8,1,,,,,,,,,,,,,,,,
,,,,,,,stim/VC_06.wav,5f3344917a7a0b159bd0c375,2021-01-20_14h56.36.371,English_step1,2020.2.3,Win32,60,,,right,0.91792,,,,,,,,,1,5,16,5,1,,,,,,,,,,,,,,,,
,,,,,,,stim/VC_08.wav,5f3344917a7a0b159bd0c375,2021-01-20_14h56.36.371,English_step1,2020.2.3,Win32,60,,,right,0.547425,,,,,,,,,1,6,17,7,1,,,,,,,,,,,,,,,,
,,,,,,,stim/VC_05.wav,5f3344917a7a0b159bd0c375,2021-01-20_14h56.36.371,English_step1,2020.2.3,Win32,60,,,right,0.52807,,,,,,,,,1,7,18,4,1,,,,,,,,,,,,,,,,
,,,,,,,stim/VC_02.wav,5f3344917a7a0b159bd0c375,2021-01-20_14h56.36.371,English_step1,2020.2.3,Win32,60,,,left,0.4237,,,,,,,,,1,8,19,1,1,,,,,,,,,,,,,,,,
,,,,,,,stim/VC_07.wav,5f3344917a7a0b159bd0c375,2021-01-20_14h56.36.371,English_step1,2020.2.3,Win32,60,,,right,0.657835,,,,,,,,,1,9,20,6,1,,,,,,,,,,,,,,,,
,,,,,,,stim/VC_01.wav,5f3344917a7a0b159bd0c375,2021-01-20_14h56.36.371,English_step1,2020.2.3,Win32,60,,,left,0.472985,,,,,,,,,1,10,21,0,1,,,,,,,,,,,,,,,,
,,,,,,,stim2/pa+10.wav,5f3344917a7a0b159bd0c375,2021-01-20_14h56.36.371,English_step1,2020.2.3,Win32,60,,,,,,,,,,,,,,,,,,left,3.446165,0,0,0,1,1,,,,,,,,,
,,,,,,,stim2/pa-30.wav,5f3344917a7a0b159bd0c375,2021-01-20_14h56.36.371,English_step1,2020.2.3,Win32,60,,,,,,,,,,,,,,,,,,right,0.80609,0,1,1,15,1,,,,,,,,,
,,,,,,,stim2/pa-25.wav,5f3344917a7a0b159bd0c375,2021-01-20_14h56.36.371,English_step1,2020.2.3,Win32,60,,,,,,,,,,,,,,,,,,left,0.72992,0,2,2,14,1,,,,,,,,,
,,,,,,,stim2/pa+40.wav,5f3344917a7a0b159bd0c375,2021-01-20_14h56.36.371,English_step1,2020.2.3,Win32,60,,,,,,,,,,,,,,,,,,left,0.54406,0,3,3,7,1,,,,,,,,,
,,,,,,,stim2/pa-35.wav,5f3344917a7a0b159bd0c375,2021-01-20_14h56.36.371,English_step1,2020.2.3,Win32,60,,,,,,,,,,,,,,,,,,right,0.60324,0,4,4,16,1,,,,,,,,,
,,,,,,,stim2/pa-10.wav,5f3344917a7a0b159bd0c375,2021-01-20_14h56.36.371,English_step1,2020.2.3,Win32,60,,,,,,,,,,,,,,,,,,right,0.48317,0,5,5,11,1,,,,,,,,,
,,,,,,,stim2/pa+20.wav,5f3344917a7a0b159bd0c375,2021-01-20_14h56.36.371,English_step1,2020.2.3,Win32,60,,,,,,,,,,,,,,,,,,right,0.446335,0,6,6,3,1,,,,,,,,,
,,,,,,,stim2/pa+25.wav,5f3344917a7a0b159bd0c375,2021-01-20_14h56.36.371,English_step1,2020.2.3,Win32,60,,,,,,,,,,,,,,,,,,right,1.37146,0,7,7,4,1,,,,,,,,,
,,,,,,,stim2/pa+30.wav,5f3344917a7a0b159bd0c375,2021-01-20_14h56.36.371,English_step1,2020.2.3,Win32,60,,,,,,,,,,,,,,,,,,right,0.465825,0,8,8,5,1,,,,,,,,,
,,,,,,,stim2/pa+05.wav,5f3344917a7a0b159bd0c375,2021-01-20_14h56.36.371,English_step1,2020.2.3,Win32,60,,,,,,,,,,,,,,,,,,left,0.92335,0,9,9,0,1,,,,,,,,,
,,,,,,,stim2/pa-15.wav,5f3344917a7a0b159bd0c375,2021-01-20_14h56.36.371,English_step1,2020.2.3,Win32,60,,,,,,,,,,,,,,,,,,right,0.67829,0,10,10,12,1,,,,,,,,,
,,,,,,,stim2/pa+15.wav,5f3344917a7a0b159bd0c375,2021-01-20_14h56.36.371,English_step1,2020.2.3,Win32,60,,,,,,,,,,,,,,,,,,right,0.44961,0,11,11,2,1,,,,,,,,,
,,,,,,,stim2/pa+35.wav,5f3344917a7a0b159bd0c375,2021-01-20_14h56.36.371,English_step1,2020.2.3,Win32,60,,,,,,,,,,,,,,,,,,left,1.08658,0,12,12,6,1,,,,,,,,,
,,,,,,,stim2/pa-20.wav,5f3344917a7a0b159bd0c375,2021-01-20_14h56.36.371,English_step1,2020.2.3,Win32,60,,,,,,,,,,,,,,,,,,right,1.346915,0,13,13,13,1,,,,,,,,,
,,,,,,,stim2/pa+45.wav,5f3344917a7a0b159bd0c375,2021-01-20_14h56.36.371,English_step1,2020.2.3,Win32,60,,,,,,,,,,,,,,,,,,left,1.77472,0,14,14,8,1,,,,,,,,,
,,,,,,,stim2/pa-05.wav,5f3344917a7a0b159bd0c375,2021-01-20_14h56.36.371,English_step1,2020.2.3,Win32,60,,,,,,,,,,,,,,,,,,right,0.58203,0,15,15,10,1,,,,,,,,,
,,,,,,,stim2/pa+50.wav,5f3344917a7a0b159bd0c375,2021-01-20_14h56.36.371,English_step1,2020.2.3,Win32,60,,,,,,,,,,,,,,,,,,right,0.37423,0,16,16,9,1,,,,,,,,,
,,,,,,,stim2/pa-35.wav,5f3344917a7a0b159bd0c375,2021-01-20_14h56.36.371,English_step1,2020.2.3,Win32,60,,,,,,,,,,,,,,,,,,right,0.3785,1,0,17,16,1,,,,,,,,,
,,,,,,,stim2/pa+20.wav,5f3344917a7a0b159bd0c375,2021-01-20_14h56.36.371,English_step1,2020.2.3,Win32,60,,,,,,,,,,,,,,,,,,right,0.29807,1,1,18,3,1,,,,,,,,,
,,,,,,,stim2/pa+05.wav,5f3344917a7a0b159bd0c375,2021-01-20_14h56.36.371,English_step1,2020.2.3,Win32,60,,,,,,,,,,,,,,,,,,right,0.56446,1,2,19,0,1,,,,,,,,,
,,,,,,,stim2/pa+40.wav,5f3344917a7a0b159bd0c375,2021-01-20_14h56.36.371,English_step1,2020.2.3,Win32,60,,,,,,,,,,,,,,,,,,right,0.413615,1,3,20,7,1,,,,,,,,,
,,,,,,,stim2/pa-15.wav,5f3344917a7a0b159bd0c375,2021-01-20_14h56.36.371,English_step1,2020.2.3,Win32,60,,,,,,,,,,,,,,,,,,left,0.327,1,4,21,12,1,,,,,,,,,
,,,,,,,stim2/pa+35.wav,5f3344917a7a0b159bd0c375,2021-01-20_14h56.36.371,English_step1,2020.2.3,Win32,60,,,,,,,,,,,,,,,,,,left,0.24889,1,5,22,6,1,,,,,,,,,
,,,,,,,stim2/pa+15.wav,5f3344917a7a0b159bd0c375,2021-01-20_14h56.36.371,English_step1,2020.2.3,Win32,60,,,,,,,,,,,,,,,,,,left,0.25906,1,6,23,2,1,,,,,,,,,
,,,,,,,stim2/pa+45.wav,5f3344917a7a0b159bd0c375,2021-01-20_14h56.36.371,English_step1,2020.2.3,Win32,60,,,,,,,,,,,,,,,,,,left,0.18292,1,7,24,8,1,,,,,,,,,
,,,,,,,stim2/pa+10.wav,5f3344917a7a0b159bd0c375,2021-01-20_14h56.36.371,English_step1,2020.2.3,Win32,60,,,,,,,,,,,,,,,,,,right,0.370825,1,8,25,1,1,,,,,,,,,
,,,,,,,stim2/pa+25.wav,5f3344917a7a0b159bd0c375,2021-01-20_14h56.36.371,English_step1,2020.2.3,Win32,60,,,,,,,,,,,,,,,,,,right,0.648905,1,9,26,4,1,,,,,,,,,
,,,,,,,stim2/pa-20.wav,5f3344917a7a0b159bd0c375,2021-01-20_14h56.36.371,English_step1,2020.2.3,Win32,60,,,,,,,,,,,,,,,,,,right,0.39455,1,10,27,13,1,,,,,,,,,
,,,,,,,stim2/pa+30.wav,5f3344917a7a0b159bd0c375,2021-01-20_14h56.36.371,English_step1,2020.2.3,Win32,60,,,,,,,,,,,,,,,,,,left,1.26421,1,11,28,5,1,,,,,,,,,
,,,,,,,stim2/pa-30.wav,5f3344917a7a0b159bd0c375,2021-01-20_14h56.36.371,English_step1,2020.2.3,Win32,60,,,,,,,,,,,,,,,,,,right,0.33704,1,12,29,15,1,,,,,,,,,
,,,,,,,stim2/pa-25.wav,5f3344917a7a0b159bd0c375,2021-01-20_14h56.36.371,English_step1,2020.2.3,Win32,60,,,,,,,,,,,,,,,,,,right,0.30825,1,13,30,14,1,,,,,,,,,
,,,,,,,stim2/pa+50.wav,5f3344917a7a0b159bd0c375,2021-01-20_14h56.36.371,English_step1,2020.2.3,Win32,60,,,,,,,,,,,,,,,,,,right,0.35495,1,14,31,9,1,,,,,,,,,
,,,,,,,stim2/pa-10.wav,5f3344917a7a0b159bd0c375,2021-01-20_14h56.36.371,English_step1,2020.2.3,Win32,60,,,,,,,,,,,,,,,,,,right,0.249375,1,15,32,11,1,,,,,,,,,
,,,,,,,stim2/pa-05.wav,5f3344917a7a0b159bd0c375,2021-01-20_14h56.36.371,English_step1,2020.2.3,Win32,60,,,,,,,,,,,,,,,,,,right,0.39103,1,16,33,10,1,,,,,,,,,
,,,,,,,stim2/pa-15.wav,5f3344917a7a0b159bd0c375,2021-01-20_14h56.36.371,English_step1,2020.2.3,Win32,60,,,,,,,,,,,,,,,,,,right,0.83434,2,0,34,12,1,,,,,,,,,
,,,,,,,stim2/pa+15.wav,5f3344917a7a0b159bd0c375,2021-01-20_14h56.36.371,English_step1,2020.2.3,Win32,60,,,,,,,,,,,,,,,,,,right,0.417725,2,1,35,2,1,,,,,,,,,
,,,,,,,stim2/pa+05.wav,5f3344917a7a0b159bd0c375,2021-01-20_14h56.36.371,English_step1,2020.2.3,Win32,60,,,,,,,,,,,,,,,,,,left,0.207105,2,2,36,0,1,,,,,,,,,
,,,,,,,stim2/pa+35.wav,5f3344917a7a0b159bd0c375,2021-01-20_14h56.36.371,English_step1,2020.2.3,Win32,60,,,,,,,,,,,,,,,,,,left,0.41774,2,3,37,6,1,,,,,,,,,
,,,,,,,stim2/pa+10.wav,5f3344917a7a0b159bd0c375,2021-01-20_14h56.36.371,English_step1,2020.2.3,Win32,60,,,,,,,,,,,,,,,,,,left,0.360555,2,4,38,1,1,,,,,,,,,
,,,,,,,stim2/pa+25.wav,5f3344917a7a0b159bd0c375,2021-01-20_14h56.36.371,English_step1,2020.2.3,Win32,60,,,,,,,,,,,,,,,,,,left,0.38041,2,5,39,4,1,,,,,,,,,
,,,,,,,stim2/pa-05.wav,5f3344917a7a0b159bd0c375,2021-01-20_14h56.36.371,English_step1,2020.2.3,Win32,60,,,,,,,,,,,,,,,,,,left,0.413935,2,6,40,10,1,,,,,,,,,
,,,,,,,stim2/pa+45.wav,5f3344917a7a0b159bd0c375,2021-01-20_14h56.36.371,English_step1,2020.2.3,Win32,60,,,,,,,,,,,,,,,,,,left,0.286625,2,7,41,8,1,,,,,,,,,
,,,,,,,stim2/pa-10.wav,5f3344917a7a0b159bd0c375,2021-01-20_14h56.36.371,English_step1,2020.2.3,Win32,60,,,,,,,,,,,,,,,,,,left,0.334545,2,8,42,11,1,,,,,,,,,
,,,,,,,stim2/pa-25.wav,5f3344917a7a0b159bd0c375,2021-01-20_14h56.36.371,English_step1,2020.2.3,Win32,60,,,,,,,,,,,,,,,,,,left,0.20817,2,9,43,14,1,,,,,,,,,
,,,,,,,stim2/pa+40.wav,5f3344917a7a0b159bd0c375,2021-01-20_14h56.36.371,English_step1,2020.2.3,Win32,60,,,,,,,,,,,,,,,,,,left,0.397255,2,10,44,7,1,,,,,,,,,
,,,,,,,stim2/pa-20.wav,5f3344917a7a0b159bd0c375,2021-01-20_14h56.36.371,English_step1,2020.2.3,Win32,60,,,,,,,,,,,,,,,,,,left,0.76212,2,11,45,13,1,,,,,,,,,
,,,,,,,stim2/pa+20.wav,5f3344917a7a0b159bd0c375,2021-01-20_14h56.36.371,English_step1,2020.2.3,Win32,60,,,,,,,,,,,,,,,,,,right,0.31833,2,12,46,3,1,,,,,,,,,
,,,,,,,stim2/pa+50.wav,5f3344917a7a0b159bd0c375,2021-01-20_14h56.36.371,English_step1,2020.2.3,Win32,60,,,,,,,,,,,,,,,,,,right,0.79287,2,13,47,9,1,,,,,,,,,
,,,,,,,stim2/pa-30.wav,5f3344917a7a0b159bd0c375,2021-01-20_14h56.36.371,English_step1,2020.2.3,Win32,60,,,,,,,,,,,,,,,,,,right,0.349715,2,14,48,15,1,,,,,,,,,
,,,,,,,stim2/pa+30.wav,5f3344917a7a0b159bd0c375,2021-01-20_14h56.36.371,English_step1,2020.2.3,Win32,60,,,,,,,,,,,,,,,,,,right,0.100125,2,15,49,5,1,,,,,,,,,
,,,,,,,stim2/pa-35.wav,5f3344917a7a0b159bd0c375,2021-01-20_14h56.36.371,English_step1,2020.2.3,Win32,60,,,,,,,,,,,,,,,,,,right,0.48943,2,16,50,16,1,,,,,,,,,
,,,,,,,stim2/pa-05.wav,5f3344917a7a0b159bd0c375,2021-01-20_14h56.36.371,English_step1,2020.2.3,Win32,60,,,,,,,,,,,,,,,,,,left,0.90782,,,,,,q,1.91999,0,0,0,10,1,,
,,,,,,,stim2/pa+50.wav,5f3344917a7a0b159bd0c375,2021-01-20_14h56.36.371,English_step1,2020.2.3,Win32,60,,,,,,,,,,,,,,,,,,left,0.37229,,,,,,,,0,1,1,9,1,,
,,,,,,,stim2/pa+40.wav,5f3344917a7a0b159bd0c375,2021-01-20_14h56.36.371,English_step1,2020.2.3,Win32,60,,,,,,,,,,,,,,,,,,left,0.32992,,,,,,,,0,2,2,7,1,,
,,,,,,,stim2/pa+35.wav,5f3344917a7a0b159bd0c375,2021-01-20_14h56.36.371,English_step1,2020.2.3,Win32,60,,,,,,,,,,,,,,,,,,left,0.386485,,,,,,,,0,3,3,6,1,,
,,,,,,,stim2/pa+25.wav,5f3344917a7a0b159bd0c375,2021-01-20_14h56.36.371,English_step1,2020.2.3,Win32,60,,,,,,,,,,,,,,,,,,left,0.44934,,,,,,,,0,4,4,4,1,,
,,,,,,,stim2/pa+05.wav,5f3344917a7a0b159bd0c375,2021-01-20_14h56.36.371,English_step1,2020.2.3,Win32,60,,,,,,,,,,,,,,,,,,left,0.254665,,,,,,,,0,5,5,0,1,,
,,,,,,,stim2/pa+45.wav,5f3344917a7a0b159bd0c375,2021-01-20_14h56.36.371,English_step1,2020.2.3,Win32,60,,,,,,,,,,,,,,,,,,left,0.217775,,,,,,,,0,6,6,8,1,,
,,,,,,,stim2/pa-25.wav,5f3344917a7a0b159bd0c375,2021-01-20_14h56.36.371,English_step1,2020.2.3,Win32,60,,,,,,,,,,,,,,,,,,left,0.513705,,,,,,,,0,7,7,14,1,,
,,,,,,,stim2/pa+30.wav,5f3344917a7a0b159bd0c375,2021-01-20_14h56.36.371,English_step1,2020.2.3,Win32,60,,,,,,,,,,,,,,,,,,left,0.16885,,,,,,,,0,8,8,5,1,,
,,,,,,,stim2/pa-20.wav,5f3344917a7a0b159bd0c375,2021-01-20_14h56.36.371,English_step1,2020.2.3,Win32,60,,,,,,,,,,,,,,,,,,left,0.46163,,,,,,,,0,9,9,13,1,,
,,,,,,,stim2/pa+20.wav,5f3344917a7a0b159bd0c375,2021-01-20_14h56.36.371,English_step1,2020.2.3,Win32,60,,,,,,,,,,,,,,,,,,left,0.442175,,,,,,,,0,10,10,3,1,,
,,,,,,,stim2/pa-15.wav,5f3344917a7a0b159bd0c375,2021-01-20_14h56.36.371,English_step1,2020.2.3,Win32,60,,,,,,,,,,,,,,,,,,left,0.329755,,,,,,,,0,11,11,12,1,,
,,,,,,,stim2/pa-35.wav,5f3344917a7a0b159bd0c375,2021-01-20_14h56.36.371,English_step1,2020.2.3,Win32,60,,,,,,,,,,,,,,,,,,left,0.38859,,,,,,,,0,12,12,16,1,,
,,,,,,,stim2/pa-10.wav,5f3344917a7a0b159bd0c375,2021-01-20_14h56.36.371,English_step1,2020.2.3,Win32,60,,,,,,,,,,,,,,,,,,left,0.224515,,,,,,,,0,13,13,11,1,,
,,,,,,,stim2/pa+15.wav,5f3344917a7a0b159bd0c375,2021-01-20_14h56.36.371,English_step1,2020.2.3,Win32,60,,,,,,,,,,,,,,,,,,left,0.18198,,,,,,,,0,14,14,2,1,,
,,,,,,,stim2/pa+10.wav,5f3344917a7a0b159bd0c375,2021-01-20_14h56.36.371,English_step1,2020.2.3,Win32,60,,,,,,,,,,,,,,,,,,left,0.320535,,,,,,,,0,15,15,1,1,,
,,,,,,,stim2/pa-30.wav,5f3344917a7a0b159bd0c375,2021-01-20_14h56.36.371,English_step1,2020.2.3,Win32,60,,,,,,,,,,,,,,,,,,left,0.31848,,,,,,,,0,16,16,15,1,,
,,,,,,,stim2/pa+45.wav,5f3344917a7a0b159bd0c375,2021-01-20_14h56.36.371,English_step1,2020.2.3,Win32,60,,,,,,,,,,,,,,,,,,left,0.193605,,,,,,,,1,0,17,8,1,,
,,,,,,,stim2/pa+20.wav,5f3344917a7a0b159bd0c375,2021-01-20_14h56.36.371,English_step1,2020.2.3,Win32,60,,,,,,,,,,,,,,,,,,left,0.351725,,,,,,,,1,1,18,3,1,,
,,,,,,,stim2/pa-20.wav,5f3344917a7a0b159bd0c375,2021-01-20_14h56.36.371,English_step1,2020.2.3,Win32,60,,,,,,,,,,,,,,,,,,left,0.178015,,,,,,,,1,2,19,13,1,,
,,,,,,,stim2/pa+10.wav,5f3344917a7a0b159bd0c375,2021-01-20_14h56.36.371,English_step1,2020.2.3,Win32,60,,,,,,,,,,,,,,,,,,left,0.254045,,,,,,,,1,3,20,1,1,,
,,,,,,,stim2/pa+15.wav,5f3344917a7a0b159bd0c375,2021-01-20_14h56.36.371,English_step1,2020.2.3,Win32,60,,,,,,,,,,,,,,,,,,left,0.314765,,,,,,,,1,4,21,2,1,,
,,,,,,,stim2/pa+50.wav,5f3344917a7a0b159bd0c375,2021-01-20_14h56.36.371,English_step1,2020.2.3,Win32,60,,,,,,,,,,,,,,,,,,left,0.329595,,,,,,,,1,5,22,9,1,,
,,,,,,,stim2/pa+25.wav,5f3344917a7a0b159bd0c375,2021-01-20_14h56.36.371,English_step1,2020.2.3,Win32,60,,,,,,,,,,,,,,,,,,left,0.324055,,,,,,,,1,6,23,4,1,,
,,,,,,,stim2/pa-35.wav,5f3344917a7a0b159bd0c375,2021-01-20_14h56.36.371,English_step1,2020.2.3,Win32,60,,,,,,,,,,,,,,,,,,left,0.300865,,,,,,,,1,7,24,16,1,,
,,,,,,,stim2/pa-05.wav,5f3344917a7a0b159bd0c375,2021-01-20_14h56.36.371,English_step1,2020.2.3,Win32,60,,,,,,,,,,,,,,,,,,left,0.27775,,,,,,,,1,8,25,10,1,,
,,,,,,,stim2/pa-30.wav,5f3344917a7a0b159bd0c375,2021-01-20_14h56.36.371,English_step1,2020.2.3,Win32,60,,,,,,,,,,,,,,,,,,left,0.260975,,,,,,,,1,9,26,15,1,,
,,,,,,,stim2/pa+30.wav,5f3344917a7a0b159bd0c375,2021-01-20_14h56.36.371,English_step1,2020.2.3,Win32,60,,,,,,,,,,,,,,,,,,left,0.272925,,,,,,,,1,10,27,5,1,,
,,,,,,,stim2/pa+05.wav,5f3344917a7a0b159bd0c375,2021-01-20_14h56.36.371,English_step1,2020.2.3,Win32,60,,,,,,,,,,,,,,,,,,left,0.22941,,,,,,,,1,11,28,0,1,,
,,,,,,,stim2/pa-10.wav,5f3344917a7a0b159bd0c375,2021-01-20_14h56.36.371,English_step1,2020.2.3,Win32,60,,,,,,,,,,,,,,,,,,left,0.36424,,,,,,,,1,12,29,11,1,,
,,,,,,,stim2/pa+40.wav,5f3344917a7a0b159bd0c375,2021-01-20_14h56.36.371,English_step1,2020.2.3,Win32,60,,,,,,,,,,,,,,,,,,left,0.389755,,,,,,,,1,13,30,7,1,,
,,,,,,,stim2/pa-15.wav,5f3344917a7a0b159bd0c375,2021-01-20_14h56.36.371,English_step1,2020.2.3,Win32,60,,,,,,,,,,,,,,,,,,left,0.107485,,,,,,,,1,14,31,12,1,,
,,,,,,,stim2/pa-25.wav,5f3344917a7a0b159bd0c375,2021-01-20_14h56.36.371,English_step1,2020.2.3,Win32,60,,,,,,,,,,,,,,,,,,left,0.37275,,,,,,,,1,15,32,14,1,,
,,,,,,,stim2/pa+35.wav,5f3344917a7a0b159bd0c375,2021-01-20_14h56.36.371,English_step1,2020.2.3,Win32,60,,,,,,,,,,,,,,,,,,left,0.107105,,,,,,,,1,16,33,6,1,,
,,,,,,,,5f3344917a7a0b159bd0c375,2021-01-20_14h56.36.371,English_step1,2020.2.3,Win32,60,,,,,,,,,,,,,,,,,,,,,,,,,,,,,,,,space,20.89604
