resp.keys,resp.rt,trials.thisRepN,trials.thisTrialN,trials.thisN,trials.thisIndex,trials.ran,stimuli,participant,date,expName,psychopyVersion,OS,frameRate,gotResponse.keys,gotResponse.rt,resp_2.keys,resp_2.rt,trials_2.thisRepN,trials_2.thisTrialN,trials_2.thisN,trials_2.thisIndex,trials_2.ran,key_resp_3.keys,key_resp_3.corr,key_resp_3.rt,trials_4.thisRepN,trials_4.thisTrialN,trials_4.thisN,trials_4.thisIndex,trials_4.ran,resp_3.keys,resp_3.rt,trials_3.thisRepN,trials_3.thisTrialN,trials_3.thisN,trials_3.thisIndex,trials_3.ran,key_resp_2.keys,key_resp_2.rt,trials_5.thisRepN,trials_5.thisTrialN,trials_5.thisN,trials_5.thisIndex,trials_5.ran,key_resp.keys,key_resp.rt
right,4.84812,0,0,0,1,1,stim/VC_11.wav,5fad49057daf5f0162284e86,2020-12-17_10h43.21.198,English_step1,2020.2.3,MacIntel,60,,,,,,,,,,,,,,,,,,,,,,,,,,,,,,,,,
left,1.1494,0,1,1,0,1,stim/VC_01.wav,5fad49057daf5f0162284e86,2020-12-17_10h43.21.198,English_step1,2020.2.3,MacIntel,60,,,,,,,,,,,,,,,,,,,,,,,,,,,,,,,,,
,,,,,,,stim/VC_09.wav,5fad49057daf5f0162284e86,2020-12-17_10h43.21.198,English_step1,2020.2.3,MacIntel,60,space,2.333605,right,1.155295,0,0,0,8,1,,,,,,,,,,,,,,,,,,,,,,,,
,,,,,,,stim/VC_02.wav,5fad49057daf5f0162284e86,2020-12-17_10h43.21.198,English_step1,2020.2.3,MacIntel,60,,,left,0.583315,0,1,1,1,1,,,,,,,,,,,,,,,,,,,,,,,,
,,,,,,,stim/VC_11.wav,5fad49057daf5f0162284e86,2020-12-17_10h43.21.198,English_step1,2020.2.3,MacIntel,60,,,right,0.702755,0,2,2,10,1,,,,,,,,,,,,,,,,,,,,,,,,
,,,,,,,stim/VC_10.wav,5fad49057daf5f0162284e86,2020-12-17_10h43.21.198,English_step1,2020.2.3,MacIntel,60,,,right,0.55086,0,3,3,9,1,,,,,,,,,,,,,,,,,,,,,,,,
,,,,,,,stim/VC_05.wav,5fad49057daf5f0162284e86,2020-12-17_10h43.21.198,English_step1,2020.2.3,MacIntel,60,,,right,0.66712,0,4,4,4,1,,,,,,,,,,,,,,,,,,,,,,,,
,,,,,,,stim/VC_01.wav,5fad49057daf5f0162284e86,2020-12-17_10h43.21.198,English_step1,2020.2.3,MacIntel,60,,,left,0.79968,0,5,5,0,1,,,,,,,,,,,,,,,,,,,,,,,,
,,,,,,,stim/VC_04.wav,5fad49057daf5f0162284e86,2020-12-17_10h43.21.198,English_step1,2020.2.3,MacIntel,60,,,right,0.616605,0,6,6,3,1,,,,,,,,,,,,,,,,,,,,,,,,
,,,,,,,stim/VC_06.wav,5fad49057daf5f0162284e86,2020-12-17_10h43.21.198,English_step1,2020.2.3,MacIntel,60,,,right,0.76622,0,7,7,5,1,,,,,,,,,,,,,,,,,,,,,,,,
,,,,,,,stim/VC_03.wav,5fad49057daf5f0162284e86,2020-12-17_10h43.21.198,English_step1,2020.2.3,MacIntel,60,,,left,0.61636,0,8,8,2,1,,,,,,,,,,,,,,,,,,,,,,,,
,,,,,,,stim/VC_08.wav,5fad49057daf5f0162284e86,2020-12-17_10h43.21.198,English_step1,2020.2.3,MacIntel,60,,,right,0.60064,0,9,9,7,1,,,,,,,,,,,,,,,,,,,,,,,,
,,,,,,,stim/VC_07.wav,5fad49057daf5f0162284e86,2020-12-17_10h43.21.198,English_step1,2020.2.3,MacIntel,60,,,right,0.69954,0,10,10,6,1,,,,,,,,,,,,,,,,,,,,,,,,
,,,,,,,stim/VC_05.wav,5fad49057daf5f0162284e86,2020-12-17_10h43.21.198,English_step1,2020.2.3,MacIntel,60,,,right,0.633015,1,0,11,4,1,,,,,,,,,,,,,,,,,,,,,,,,
,,,,,,,stim/VC_06.wav,5fad49057daf5f0162284e86,2020-12-17_10h43.21.198,English_step1,2020.2.3,MacIntel,60,,,right,0.51587,1,1,12,5,1,,,,,,,,,,,,,,,,,,,,,,,,
,,,,,,,stim/VC_01.wav,5fad49057daf5f0162284e86,2020-12-17_10h43.21.198,English_step1,2020.2.3,MacIntel,60,,,left,0.71927,1,2,13,0,1,,,,,,,,,,,,,,,,,,,,,,,,
,,,,,,,stim/VC_11.wav,5fad49057daf5f0162284e86,2020-12-17_10h43.21.198,English_step1,2020.2.3,MacIntel,60,,,right,0.65014,1,3,14,10,1,,,,,,,,,,,,,,,,,,,,,,,,
,,,,,,,stim/VC_08.wav,5fad49057daf5f0162284e86,2020-12-17_10h43.21.198,English_step1,2020.2.3,MacIntel,60,,,right,0.54917,1,4,15,7,1,,,,,,,,,,,,,,,,,,,,,,,,
,,,,,,,stim/VC_09.wav,5fad49057daf5f0162284e86,2020-12-17_10h43.21.198,English_step1,2020.2.3,MacIntel,60,,,right,0.4666,1,5,16,8,1,,,,,,,,,,,,,,,,,,,,,,,,
,,,,,,,stim/VC_02.wav,5fad49057daf5f0162284e86,2020-12-17_10h43.21.198,English_step1,2020.2.3,MacIntel,60,,,left,0.53374,1,6,17,1,1,,,,,,,,,,,,,,,,,,,,,,,,
,,,,,,,stim/VC_03.wav,5fad49057daf5f0162284e86,2020-12-17_10h43.21.198,English_step1,2020.2.3,MacIntel,60,,,left,0.41582,1,7,18,2,1,,,,,,,,,,,,,,,,,,,,,,,,
,,,,,,,stim/VC_10.wav,5fad49057daf5f0162284e86,2020-12-17_10h43.21.198,English_step1,2020.2.3,MacIntel,60,,,right,0.449335,1,8,19,9,1,,,,,,,,,,,,,,,,,,,,,,,,
,,,,,,,stim/VC_07.wav,5fad49057daf5f0162284e86,2020-12-17_10h43.21.198,English_step1,2020.2.3,MacIntel,60,,,right,0.449255,1,9,20,6,1,,,,,,,,,,,,,,,,,,,,,,,,
,,,,,,,stim/VC_04.wav,5fad49057daf5f0162284e86,2020-12-17_10h43.21.198,English_step1,2020.2.3,MacIntel,60,,,left,0.437115,1,10,21,3,1,,,,,,,,,,,,,,,,,,,,,,,,
,,,,,,,stim/VC_02.wav,5fad49057daf5f0162284e86,2020-12-17_10h43.21.198,English_step1,2020.2.3,MacIntel,60,,,left,0.484225,2,0,22,1,1,,,,,,,,,,,,,,,,,,,,,,,,
,,,,,,,stim/VC_09.wav,5fad49057daf5f0162284e86,2020-12-17_10h43.21.198,English_step1,2020.2.3,MacIntel,60,,,right,0.48401,2,1,23,8,1,,,,,,,,,,,,,,,,,,,,,,,,
,,,,,,,stim/VC_07.wav,5fad49057daf5f0162284e86,2020-12-17_10h43.21.198,English_step1,2020.2.3,MacIntel,60,,,right,0.749265,2,2,24,6,1,,,,,,,,,,,,,,,,,,,,,,,,
,,,,,,,stim/VC_04.wav,5fad49057daf5f0162284e86,2020-12-17_10h43.21.198,English_step1,2020.2.3,MacIntel,60,,,left,0.61683,2,3,25,3,1,,,,,,,,,,,,,,,,,,,,,,,,
,,,,,,,stim/VC_08.wav,5fad49057daf5f0162284e86,2020-12-17_10h43.21.198,English_step1,2020.2.3,MacIntel,60,,,right,0.683965,2,4,26,7,1,,,,,,,,,,,,,,,,,,,,,,,,
,,,,,,,stim/VC_10.wav,5fad49057daf5f0162284e86,2020-12-17_10h43.21.198,English_step1,2020.2.3,MacIntel,60,,,right,1.06714,2,5,27,9,1,,,,,,,,,,,,,,,,,,,,,,,,
,,,,,,,stim/VC_11.wav,5fad49057daf5f0162284e86,2020-12-17_10h43.21.198,English_step1,2020.2.3,MacIntel,60,,,right,0.58514,2,6,28,10,1,,,,,,,,,,,,,,,,,,,,,,,,
,,,,,,,stim/VC_03.wav,5fad49057daf5f0162284e86,2020-12-17_10h43.21.198,English_step1,2020.2.3,MacIntel,60,,,left,0.6039,2,7,29,2,1,,,,,,,,,,,,,,,,,,,,,,,,
,,,,,,,stim/VC_06.wav,5fad49057daf5f0162284e86,2020-12-17_10h43.21.198,English_step1,2020.2.3,MacIntel,60,,,right,0.56676,2,8,30,5,1,,,,,,,,,,,,,,,,,,,,,,,,
,,,,,,,stim/VC_05.wav,5fad49057daf5f0162284e86,2020-12-17_10h43.21.198,English_step1,2020.2.3,MacIntel,60,,,right,0.650625,2,9,31,4,1,,,,,,,,,,,,,,,,,,,,,,,,
,,,,,,,stim/VC_01.wav,5fad49057daf5f0162284e86,2020-12-17_10h43.21.198,English_step1,2020.2.3,MacIntel,60,,,left,0.518045,2,10,32,0,1,,,,,,,,,,,,,,,,,,,,,,,,
,,,,,,,stim/VC_09.wav,5fad49057daf5f0162284e86,2020-12-17_10h43.21.198,English_step1,2020.2.3,MacIntel,60,,,right,1.31689,,,,,,4,0,5.781615,0,0,0,8,1,,,,,,,,,,,,,,,,
,,,,,,,stim/VC_03.wav,5fad49057daf5f0162284e86,2020-12-17_10h43.21.198,English_step1,2020.2.3,MacIntel,60,,,left,1.04972,,,,,,,,,0,1,1,2,1,,,,,,,,,,,,,,,,
,,,,,,,stim/VC_01.wav,5fad49057daf5f0162284e86,2020-12-17_10h43.21.198,English_step1,2020.2.3,MacIntel,60,,,left,0.66866,,,,,,,,,0,2,2,0,1,,,,,,,,,,,,,,,,
,,,,,,,stim/VC_11.wav,5fad49057daf5f0162284e86,2020-12-17_10h43.21.198,English_step1,2020.2.3,MacIntel,60,,,right,0.43328,,,,,,,,,0,3,3,10,1,,,,,,,,,,,,,,,,
,,,,,,,stim/VC_04.wav,5fad49057daf5f0162284e86,2020-12-17_10h43.21.198,English_step1,2020.2.3,MacIntel,60,,,left,0.58442,,,,,,,,,0,4,4,3,1,,,,,,,,,,,,,,,,
,,,,,,,stim/VC_06.wav,5fad49057daf5f0162284e86,2020-12-17_10h43.21.198,English_step1,2020.2.3,MacIntel,60,,,right,0.817045,,,,,,,,,0,5,5,5,1,,,,,,,,,,,,,,,,
,,,,,,,stim/VC_08.wav,5fad49057daf5f0162284e86,2020-12-17_10h43.21.198,English_step1,2020.2.3,MacIntel,60,,,right,0.616765,,,,,,,,,0,6,6,7,1,,,,,,,,,,,,,,,,
,,,,,,,stim/VC_05.wav,5fad49057daf5f0162284e86,2020-12-17_10h43.21.198,English_step1,2020.2.3,MacIntel,60,,,right,0.465985,,,,,,,,,0,7,7,4,1,,,,,,,,,,,,,,,,
,,,,,,,stim/VC_10.wav,5fad49057daf5f0162284e86,2020-12-17_10h43.21.198,English_step1,2020.2.3,MacIntel,60,,,right,0.433965,,,,,,,,,0,8,8,9,1,,,,,,,,,,,,,,,,
,,,,,,,stim/VC_07.wav,5fad49057daf5f0162284e86,2020-12-17_10h43.21.198,English_step1,2020.2.3,MacIntel,60,,,right,0.417355,,,,,,,,,0,9,9,6,1,,,,,,,,,,,,,,,,
,,,,,,,stim/VC_02.wav,5fad49057daf5f0162284e86,2020-12-17_10h43.21.198,English_step1,2020.2.3,MacIntel,60,,,left,0.533355,,,,,,,,,0,10,10,1,1,,,,,,,,,,,,,,,,
,,,,,,,stim/VC_11.wav,5fad49057daf5f0162284e86,2020-12-17_10h43.21.198,English_step1,2020.2.3,MacIntel,60,,,right,0.49993,,,,,,,,,1,0,11,10,1,,,,,,,,,,,,,,,,
,,,,,,,stim/VC_03.wav,5fad49057daf5f0162284e86,2020-12-17_10h43.21.198,English_step1,2020.2.3,MacIntel,60,,,left,0.5337,,,,,,,,,1,1,12,2,1,,,,,,,,,,,,,,,,
,,,,,,,stim/VC_06.wav,5fad49057daf5f0162284e86,2020-12-17_10h43.21.198,English_step1,2020.2.3,MacIntel,60,,,right,0.466815,,,,,,,,,1,2,13,5,1,,,,,,,,,,,,,,,,
,,,,,,,stim/VC_04.wav,5fad49057daf5f0162284e86,2020-12-17_10h43.21.198,English_step1,2020.2.3,MacIntel,60,,,left,0.632595,,,,,,,,,1,3,14,3,1,,,,,,,,,,,,,,,,
,,,,,,,stim/VC_02.wav,5fad49057daf5f0162284e86,2020-12-17_10h43.21.198,English_step1,2020.2.3,MacIntel,60,,,left,0.42358,,,,,,,,,1,4,15,1,1,,,,,,,,,,,,,,,,
,,,,,,,stim/VC_01.wav,5fad49057daf5f0162284e86,2020-12-17_10h43.21.198,English_step1,2020.2.3,MacIntel,60,,,left,0.5002,,,,,,,,,1,5,16,0,1,,,,,,,,,,,,,,,,
,,,,,,,stim/VC_07.wav,5fad49057daf5f0162284e86,2020-12-17_10h43.21.198,English_step1,2020.2.3,MacIntel,60,,,right,0.388645,,,,,,,,,1,6,17,6,1,,,,,,,,,,,,,,,,
,,,,,,,stim/VC_10.wav,5fad49057daf5f0162284e86,2020-12-17_10h43.21.198,English_step1,2020.2.3,MacIntel,60,,,right,0.432445,,,,,,,,,1,7,18,9,1,,,,,,,,,,,,,,,,
,,,,,,,stim/VC_08.wav,5fad49057daf5f0162284e86,2020-12-17_10h43.21.198,English_step1,2020.2.3,MacIntel,60,,,right,0.383915,,,,,,,,,1,8,19,7,1,,,,,,,,,,,,,,,,
,,,,,,,stim/VC_05.wav,5fad49057daf5f0162284e86,2020-12-17_10h43.21.198,English_step1,2020.2.3,MacIntel,60,,,right,0.416975,,,,,,,,,1,9,20,4,1,,,,,,,,,,,,,,,,
,,,,,,,stim/VC_09.wav,5fad49057daf5f0162284e86,2020-12-17_10h43.21.198,English_step1,2020.2.3,MacIntel,60,,,right,0.304095,,,,,,,,,1,10,21,8,1,,,,,,,,,,,,,,,,
,,,,,,,stim2/pa+45.wav,5fad49057daf5f0162284e86,2020-12-17_10h43.21.198,English_step1,2020.2.3,MacIntel,60,,,,,,,,,,,,,,,,,,left,1.15088,0,0,0,8,1,,,,,,,,,
,,,,,,,stim2/pa-25.wav,5fad49057daf5f0162284e86,2020-12-17_10h43.21.198,English_step1,2020.2.3,MacIntel,60,,,,,,,,,,,,,,,,,,left,0.399825,0,1,1,14,1,,,,,,,,,
,,,,,,,stim2/pa+20.wav,5fad49057daf5f0162284e86,2020-12-17_10h43.21.198,English_step1,2020.2.3,MacIntel,60,,,,,,,,,,,,,,,,,,left,0.583365,0,2,2,3,1,,,,,,,,,
,,,,,,,stim2/pa+10.wav,5fad49057daf5f0162284e86,2020-12-17_10h43.21.198,English_step1,2020.2.3,MacIntel,60,,,,,,,,,,,,,,,,,,right,0.81823,0,3,3,1,1,,,,,,,,,
,,,,,,,stim2/pa-20.wav,5fad49057daf5f0162284e86,2020-12-17_10h43.21.198,English_step1,2020.2.3,MacIntel,60,,,,,,,,,,,,,,,,,,right,0.516315,0,4,4,13,1,,,,,,,,,
,,,,,,,stim2/pa+25.wav,5fad49057daf5f0162284e86,2020-12-17_10h43.21.198,English_step1,2020.2.3,MacIntel,60,,,,,,,,,,,,,,,,,,left,0.483325,0,5,5,4,1,,,,,,,,,
,,,,,,,stim2/pa-30.wav,5fad49057daf5f0162284e86,2020-12-17_10h43.21.198,English_step1,2020.2.3,MacIntel,60,,,,,,,,,,,,,,,,,,right,0.469095,0,6,6,15,1,,,,,,,,,
,,,,,,,stim2/pa+05.wav,5fad49057daf5f0162284e86,2020-12-17_10h43.21.198,English_step1,2020.2.3,MacIntel,60,,,,,,,,,,,,,,,,,,left,0.93241,0,7,7,0,1,,,,,,,,,
,,,,,,,stim2/pa+15.wav,5fad49057daf5f0162284e86,2020-12-17_10h43.21.198,English_step1,2020.2.3,MacIntel,60,,,,,,,,,,,,,,,,,,left,1.250695,0,8,8,2,1,,,,,,,,,
,,,,,,,stim2/pa+30.wav,5fad49057daf5f0162284e86,2020-12-17_10h43.21.198,English_step1,2020.2.3,MacIntel,60,,,,,,,,,,,,,,,,,,left,0.433195,0,9,9,5,1,,,,,,,,,
,,,,,,,stim2/pa+40.wav,5fad49057daf5f0162284e86,2020-12-17_10h43.21.198,English_step1,2020.2.3,MacIntel,60,,,,,,,,,,,,,,,,,,left,0.468385,0,10,10,7,1,,,,,,,,,
,,,,,,,stim2/pa+35.wav,5fad49057daf5f0162284e86,2020-12-17_10h43.21.198,English_step1,2020.2.3,MacIntel,60,,,,,,,,,,,,,,,,,,left,0.367435,0,11,11,6,1,,,,,,,,,
,,,,,,,stim2/pa-05.wav,5fad49057daf5f0162284e86,2020-12-17_10h43.21.198,English_step1,2020.2.3,MacIntel,60,,,,,,,,,,,,,,,,,,right,0.48814,0,12,12,10,1,,,,,,,,,
,,,,,,,stim2/pa-35.wav,5fad49057daf5f0162284e86,2020-12-17_10h43.21.198,English_step1,2020.2.3,MacIntel,60,,,,,,,,,,,,,,,,,,right,0.5519,0,13,13,16,1,,,,,,,,,
,,,,,,,stim2/pa+50.wav,5fad49057daf5f0162284e86,2020-12-17_10h43.21.198,English_step1,2020.2.3,MacIntel,60,,,,,,,,,,,,,,,,,,left,0.450515,0,14,14,9,1,,,,,,,,,
,,,,,,,stim2/pa-15.wav,5fad49057daf5f0162284e86,2020-12-17_10h43.21.198,English_step1,2020.2.3,MacIntel,60,,,,,,,,,,,,,,,,,,right,0.50039,0,15,15,12,1,,,,,,,,,
,,,,,,,stim2/pa-10.wav,5fad49057daf5f0162284e86,2020-12-17_10h43.21.198,English_step1,2020.2.3,MacIntel,60,,,,,,,,,,,,,,,,,,right,0.598795,0,16,16,11,1,,,,,,,,,
,,,,,,,stim2/pa-35.wav,5fad49057daf5f0162284e86,2020-12-17_10h43.21.198,English_step1,2020.2.3,MacIntel,60,,,,,,,,,,,,,,,,,,right,1.11677,1,0,17,16,1,,,,,,,,,
,,,,,,,stim2/pa+05.wav,5fad49057daf5f0162284e86,2020-12-17_10h43.21.198,English_step1,2020.2.3,MacIntel,60,,,,,,,,,,,,,,,,,,right,0.36781,1,1,18,0,1,,,,,,,,,
,,,,,,,stim2/pa-30.wav,5fad49057daf5f0162284e86,2020-12-17_10h43.21.198,English_step1,2020.2.3,MacIntel,60,,,,,,,,,,,,,,,,,,right,0.53399,1,2,19,15,1,,,,,,,,,
,,,,,,,stim2/pa+40.wav,5fad49057daf5f0162284e86,2020-12-17_10h43.21.198,English_step1,2020.2.3,MacIntel,60,,,,,,,,,,,,,,,,,,left,0.433735,1,3,20,7,1,,,,,,,,,
,,,,,,,stim2/pa+30.wav,5fad49057daf5f0162284e86,2020-12-17_10h43.21.198,English_step1,2020.2.3,MacIntel,60,,,,,,,,,,,,,,,,,,left,0.421195,1,4,21,5,1,,,,,,,,,
,,,,,,,stim2/pa-25.wav,5fad49057daf5f0162284e86,2020-12-17_10h43.21.198,English_step1,2020.2.3,MacIntel,60,,,,,,,,,,,,,,,,,,right,0.61721,1,5,22,14,1,,,,,,,,,
,,,,,,,stim2/pa-15.wav,5fad49057daf5f0162284e86,2020-12-17_10h43.21.198,English_step1,2020.2.3,MacIntel,60,,,,,,,,,,,,,,,,,,right,0.566635,1,6,23,12,1,,,,,,,,,
,,,,,,,stim2/pa+35.wav,5fad49057daf5f0162284e86,2020-12-17_10h43.21.198,English_step1,2020.2.3,MacIntel,60,,,,,,,,,,,,,,,,,,left,0.50083,1,7,24,6,1,,,,,,,,,
,,,,,,,stim2/pa-10.wav,5fad49057daf5f0162284e86,2020-12-17_10h43.21.198,English_step1,2020.2.3,MacIntel,60,,,,,,,,,,,,,,,,,,right,0.68837,1,8,25,11,1,,,,,,,,,
,,,,,,,stim2/pa+20.wav,5fad49057daf5f0162284e86,2020-12-17_10h43.21.198,English_step1,2020.2.3,MacIntel,60,,,,,,,,,,,,,,,,,,left,0.75068,1,9,26,3,1,,,,,,,,,
,,,,,,,stim2/pa+10.wav,5fad49057daf5f0162284e86,2020-12-17_10h43.21.198,English_step1,2020.2.3,MacIntel,60,,,,,,,,,,,,,,,,,,right,0.50145,1,10,27,1,1,,,,,,,,,
,,,,,,,stim2/pa-20.wav,5fad49057daf5f0162284e86,2020-12-17_10h43.21.198,English_step1,2020.2.3,MacIntel,60,,,,,,,,,,,,,,,,,,right,0.634765,1,11,28,13,1,,,,,,,,,
,,,,,,,stim2/pa+50.wav,5fad49057daf5f0162284e86,2020-12-17_10h43.21.198,English_step1,2020.2.3,MacIntel,60,,,,,,,,,,,,,,,,,,right,1.01697,1,12,29,9,1,,,,,,,,,
,,,,,,,stim2/pa-05.wav,5fad49057daf5f0162284e86,2020-12-17_10h43.21.198,English_step1,2020.2.3,MacIntel,60,,,,,,,,,,,,,,,,,,right,0.5008,1,13,30,10,1,,,,,,,,,
,,,,,,,stim2/pa+25.wav,5fad49057daf5f0162284e86,2020-12-17_10h43.21.198,English_step1,2020.2.3,MacIntel,60,,,,,,,,,,,,,,,,,,left,0.26714,1,14,31,4,1,,,,,,,,,
,,,,,,,stim2/pa+15.wav,5fad49057daf5f0162284e86,2020-12-17_10h43.21.198,English_step1,2020.2.3,MacIntel,60,,,,,,,,,,,,,,,,,,left,0.45096,1,15,32,2,1,,,,,,,,,
,,,,,,,stim2/pa+45.wav,5fad49057daf5f0162284e86,2020-12-17_10h43.21.198,English_step1,2020.2.3,MacIntel,60,,,,,,,,,,,,,,,,,,left,0.26831,1,16,33,8,1,,,,,,,,,
,,,,,,,stim2/pa+20.wav,5fad49057daf5f0162284e86,2020-12-17_10h43.21.198,English_step1,2020.2.3,MacIntel,60,,,,,,,,,,,,,,,,,,left,0.383765,2,0,34,3,1,,,,,,,,,
,,,,,,,stim2/pa+50.wav,5fad49057daf5f0162284e86,2020-12-17_10h43.21.198,English_step1,2020.2.3,MacIntel,60,,,,,,,,,,,,,,,,,,left,0.483725,2,1,35,9,1,,,,,,,,,
,,,,,,,stim2/pa+35.wav,5fad49057daf5f0162284e86,2020-12-17_10h43.21.198,English_step1,2020.2.3,MacIntel,60,,,,,,,,,,,,,,,,,,left,0.53253,2,2,36,6,1,,,,,,,,,
,,,,,,,stim2/pa+05.wav,5fad49057daf5f0162284e86,2020-12-17_10h43.21.198,English_step1,2020.2.3,MacIntel,60,,,,,,,,,,,,,,,,,,right,0.67002,2,3,37,0,1,,,,,,,,,
,,,,,,,stim2/pa+25.wav,5fad49057daf5f0162284e86,2020-12-17_10h43.21.198,English_step1,2020.2.3,MacIntel,60,,,,,,,,,,,,,,,,,,right,0.4159,2,4,38,4,1,,,,,,,,,
,,,,,,,stim2/pa-10.wav,5fad49057daf5f0162284e86,2020-12-17_10h43.21.198,English_step1,2020.2.3,MacIntel,60,,,,,,,,,,,,,,,,,,right,0.6014,2,5,39,11,1,,,,,,,,,
,,,,,,,stim2/pa+10.wav,5fad49057daf5f0162284e86,2020-12-17_10h43.21.198,English_step1,2020.2.3,MacIntel,60,,,,,,,,,,,,,,,,,,right,0.88425,2,6,40,1,1,,,,,,,,,
,,,,,,,stim2/pa+30.wav,5fad49057daf5f0162284e86,2020-12-17_10h43.21.198,English_step1,2020.2.3,MacIntel,60,,,,,,,,,,,,,,,,,,right,0.41934,2,7,41,5,1,,,,,,,,,
,,,,,,,stim2/pa-15.wav,5fad49057daf5f0162284e86,2020-12-17_10h43.21.198,English_step1,2020.2.3,MacIntel,60,,,,,,,,,,,,,,,,,,right,0.56779,2,8,42,12,1,,,,,,,,,
,,,,,,,stim2/pa-25.wav,5fad49057daf5f0162284e86,2020-12-17_10h43.21.198,English_step1,2020.2.3,MacIntel,60,,,,,,,,,,,,,,,,,,right,0.284385,2,9,43,14,1,,,,,,,,,
,,,,,,,stim2/pa+45.wav,5fad49057daf5f0162284e86,2020-12-17_10h43.21.198,English_step1,2020.2.3,MacIntel,60,,,,,,,,,,,,,,,,,,left,0.303545,2,10,44,8,1,,,,,,,,,
,,,,,,,stim2/pa-30.wav,5fad49057daf5f0162284e86,2020-12-17_10h43.21.198,English_step1,2020.2.3,MacIntel,60,,,,,,,,,,,,,,,,,,right,0.838195,2,11,45,15,1,,,,,,,,,
,,,,,,,stim2/pa-05.wav,5fad49057daf5f0162284e86,2020-12-17_10h43.21.198,English_step1,2020.2.3,MacIntel,60,,,,,,,,,,,,,,,,,,right,1.25016,2,12,46,10,1,,,,,,,,,
,,,,,,,stim2/pa-35.wav,5fad49057daf5f0162284e86,2020-12-17_10h43.21.198,English_step1,2020.2.3,MacIntel,60,,,,,,,,,,,,,,,,,,right,0.73256,2,13,47,16,1,,,,,,,,,
,,,,,,,stim2/pa-20.wav,5fad49057daf5f0162284e86,2020-12-17_10h43.21.198,English_step1,2020.2.3,MacIntel,60,,,,,,,,,,,,,,,,,,right,0.482675,2,14,48,13,1,,,,,,,,,
,,,,,,,stim2/pa+40.wav,5fad49057daf5f0162284e86,2020-12-17_10h43.21.198,English_step1,2020.2.3,MacIntel,60,,,,,,,,,,,,,,,,,,left,0.66866,2,15,49,7,1,,,,,,,,,
,,,,,,,stim2/pa+15.wav,5fad49057daf5f0162284e86,2020-12-17_10h43.21.198,English_step1,2020.2.3,MacIntel,60,,,,,,,,,,,,,,,,,,left,0.31884,2,16,50,2,1,,,,,,,,,
,,,,,,,stim2/pa-10.wav,5fad49057daf5f0162284e86,2020-12-17_10h43.21.198,English_step1,2020.2.3,MacIntel,60,,,,,,,,,,,,,,,,,,left,5.418335,,,,,,q,2.099295,0,0,0,11,1,,
,,,,,,,stim2/pa+25.wav,5fad49057daf5f0162284e86,2020-12-17_10h43.21.198,English_step1,2020.2.3,MacIntel,60,,,,,,,,,,,,,,,,,,right,0.97079,,,,,,,,0,1,1,4,1,,
,,,,,,,stim2/pa+45.wav,5fad49057daf5f0162284e86,2020-12-17_10h43.21.198,English_step1,2020.2.3,MacIntel,60,,,,,,,,,,,,,,,,,,right,0.44896,,,,,,,,0,2,2,8,1,,
,,,,,,,stim2/pa-30.wav,5fad49057daf5f0162284e86,2020-12-17_10h43.21.198,English_step1,2020.2.3,MacIntel,60,,,,,,,,,,,,,,,,,,right,0.55077,,,,,,,,0,3,3,15,1,,
,,,,,,,stim2/pa+40.wav,5fad49057daf5f0162284e86,2020-12-17_10h43.21.198,English_step1,2020.2.3,MacIntel,60,,,,,,,,,,,,,,,,,,right,0.45498,,,,,,,,0,4,4,7,1,,
,,,,,,,stim2/pa+10.wav,5fad49057daf5f0162284e86,2020-12-17_10h43.21.198,English_step1,2020.2.3,MacIntel,60,,,,,,,,,,,,,,,,,,left,0.735325,,,,,,,,0,5,5,1,1,,
,,,,,,,stim2/pa-35.wav,5fad49057daf5f0162284e86,2020-12-17_10h43.21.198,English_step1,2020.2.3,MacIntel,60,,,,,,,,,,,,,,,,,,right,0.768045,,,,,,,,0,6,6,16,1,,
,,,,,,,stim2/pa-05.wav,5fad49057daf5f0162284e86,2020-12-17_10h43.21.198,English_step1,2020.2.3,MacIntel,60,,,,,,,,,,,,,,,,,,right,0.451405,,,,,,,,0,7,7,10,1,,
,,,,,,,stim2/pa+05.wav,5fad49057daf5f0162284e86,2020-12-17_10h43.21.198,English_step1,2020.2.3,MacIntel,60,,,,,,,,,,,,,,,,,,left,0.61742,,,,,,,,0,8,8,0,1,,
,,,,,,,stim2/pa+20.wav,5fad49057daf5f0162284e86,2020-12-17_10h43.21.198,English_step1,2020.2.3,MacIntel,60,,,,,,,,,,,,,,,,,,right,0.387875,,,,,,,,0,9,9,3,1,,
,,,,,,,stim2/pa+50.wav,5fad49057daf5f0162284e86,2020-12-17_10h43.21.198,English_step1,2020.2.3,MacIntel,60,,,,,,,,,,,,,,,,,,right,0.599755,,,,,,,,0,10,10,9,1,,
,,,,,,,stim2/pa-25.wav,5fad49057daf5f0162284e86,2020-12-17_10h43.21.198,English_step1,2020.2.3,MacIntel,60,,,,,,,,,,,,,,,,,,right,0.550195,,,,,,,,0,11,11,14,1,,
,,,,,,,stim2/pa+30.wav,5fad49057daf5f0162284e86,2020-12-17_10h43.21.198,English_step1,2020.2.3,MacIntel,60,,,,,,,,,,,,,,,,,,right,0.271315,,,,,,,,0,12,12,5,1,,
,,,,,,,stim2/pa+15.wav,5fad49057daf5f0162284e86,2020-12-17_10h43.21.198,English_step1,2020.2.3,MacIntel,60,,,,,,,,,,,,,,,,,,left,0.25361,,,,,,,,0,13,13,2,1,,
,,,,,,,stim2/pa+35.wav,5fad49057daf5f0162284e86,2020-12-17_10h43.21.198,English_step1,2020.2.3,MacIntel,60,,,,,,,,,,,,,,,,,,left,0.167225,,,,,,,,0,14,14,6,1,,
,,,,,,,stim2/pa-20.wav,5fad49057daf5f0162284e86,2020-12-17_10h43.21.198,English_step1,2020.2.3,MacIntel,60,,,,,,,,,,,,,,,,,,right,0.849945,,,,,,,,0,15,15,13,1,,
,,,,,,,stim2/pa-15.wav,5fad49057daf5f0162284e86,2020-12-17_10h43.21.198,English_step1,2020.2.3,MacIntel,60,,,,,,,,,,,,,,,,,,right,1.101425,,,,,,,,0,16,16,12,1,,
,,,,,,,stim2/pa-15.wav,5fad49057daf5f0162284e86,2020-12-17_10h43.21.198,English_step1,2020.2.3,MacIntel,60,,,,,,,,,,,,,,,,,,right,0.316925,,,,,,,,1,0,17,12,1,,
,,,,,,,stim2/pa-30.wav,5fad49057daf5f0162284e86,2020-12-17_10h43.21.198,English_step1,2020.2.3,MacIntel,60,,,,,,,,,,,,,,,,,,right,0.1344,,,,,,,,1,1,18,15,1,,
,,,,,,,stim2/pa+25.wav,5fad49057daf5f0162284e86,2020-12-17_10h43.21.198,English_step1,2020.2.3,MacIntel,60,,,,,,,,,,,,,,,,,,right,0.534425,,,,,,,,1,2,19,4,1,,
,,,,,,,stim2/pa+50.wav,5fad49057daf5f0162284e86,2020-12-17_10h43.21.198,English_step1,2020.2.3,MacIntel,60,,,,,,,,,,,,,,,,,,right,0.402125,,,,,,,,1,3,20,9,1,,
,,,,,,,stim2/pa+20.wav,5fad49057daf5f0162284e86,2020-12-17_10h43.21.198,English_step1,2020.2.3,MacIntel,60,,,,,,,,,,,,,,,,,,right,0.200815,,,,,,,,1,4,21,3,1,,
,,,,,,,stim2/pa+35.wav,5fad49057daf5f0162284e86,2020-12-17_10h43.21.198,English_step1,2020.2.3,MacIntel,60,,,,,,,,,,,,,,,,,,right,0.286635,,,,,,,,1,5,22,6,1,,
,,,,,,,stim2/pa+45.wav,5fad49057daf5f0162284e86,2020-12-17_10h43.21.198,English_step1,2020.2.3,MacIntel,60,,,,,,,,,,,,,,,,,,left,0.398875,,,,,,,,1,6,23,8,1,,
,,,,,,,stim2/pa-35.wav,5fad49057daf5f0162284e86,2020-12-17_10h43.21.198,English_step1,2020.2.3,MacIntel,60,,,,,,,,,,,,,,,,,,left,0.136055,,,,,,,,1,7,24,16,1,,
,,,,,,,stim2/pa+40.wav,5fad49057daf5f0162284e86,2020-12-17_10h43.21.198,English_step1,2020.2.3,MacIntel,60,,,,,,,,,,,,,,,,,,left,0.53387,,,,,,,,1,8,25,7,1,,
,,,,,,,stim2/pa+15.wav,5fad49057daf5f0162284e86,2020-12-17_10h43.21.198,English_step1,2020.2.3,MacIntel,60,,,,,,,,,,,,,,,,,,left,0.380855,,,,,,,,1,9,26,2,1,,
,,,,,,,stim2/pa-20.wav,5fad49057daf5f0162284e86,2020-12-17_10h43.21.198,English_step1,2020.2.3,MacIntel,60,,,,,,,,,,,,,,,,,,left,0.53671,,,,,,,,1,10,27,13,1,,
,,,,,,,stim2/pa-10.wav,5fad49057daf5f0162284e86,2020-12-17_10h43.21.198,English_step1,2020.2.3,MacIntel,60,,,,,,,,,,,,,,,,,,right,0.16699,,,,,,,,1,11,28,11,1,,
,,,,,,,stim2/pa-25.wav,5fad49057daf5f0162284e86,2020-12-17_10h43.21.198,English_step1,2020.2.3,MacIntel,60,,,,,,,,,,,,,,,,,,right,0.64908,,,,,,,,1,12,29,14,1,,
,,,,,,,stim2/pa-05.wav,5fad49057daf5f0162284e86,2020-12-17_10h43.21.198,English_step1,2020.2.3,MacIntel,60,,,,,,,,,,,,,,,,,,right,0.90005,,,,,,,,1,13,30,10,1,,
,,,,,,,stim2/pa+10.wav,5fad49057daf5f0162284e86,2020-12-17_10h43.21.198,English_step1,2020.2.3,MacIntel,60,,,,,,,,,,,,,,,,,,right,0.301395,,,,,,,,1,14,31,1,1,,
,,,,,,,stim2/pa+05.wav,5fad49057daf5f0162284e86,2020-12-17_10h43.21.198,English_step1,2020.2.3,MacIntel,60,,,,,,,,,,,,,,,,,,left,0.416485,,,,,,,,1,15,32,0,1,,
,,,,,,,stim2/pa+30.wav,5fad49057daf5f0162284e86,2020-12-17_10h43.21.198,English_step1,2020.2.3,MacIntel,60,,,,,,,,,,,,,,,,,,left,0.449725,,,,,,,,1,16,33,5,1,,
,,,,,,,,5fad49057daf5f0162284e86,2020-12-17_10h43.21.198,English_step1,2020.2.3,MacIntel,60,,,,,,,,,,,,,,,,,,,,,,,,,,,,,,,,space,2.898665
