resp.keys,resp.rt,trials.thisRepN,trials.thisTrialN,trials.thisN,trials.thisIndex,trials.ran,stimuli,participant,date,expName,psychopyVersion,OS,frameRate,gotResponse.keys,gotResponse.rt,resp_2.keys,resp_2.rt,trials_2.thisRepN,trials_2.thisTrialN,trials_2.thisN,trials_2.thisIndex,trials_2.ran,key_resp_3.keys,key_resp_3.corr,key_resp_3.rt,trials_4.thisRepN,trials_4.thisTrialN,trials_4.thisN,trials_4.thisIndex,trials_4.ran,resp_3.keys,resp_3.rt,trials_3.thisRepN,trials_3.thisTrialN,trials_3.thisN,trials_3.thisIndex,trials_3.ran,key_resp_2.keys,key_resp_2.rt,trials_5.thisRepN,trials_5.thisTrialN,trials_5.thisN,trials_5.thisIndex,trials_5.ran,key_resp.keys,key_resp.rt
left,2.439885,0,0,0,0,1,stim/VC_01.wav,5fb31c2b353c5ea37f63bdc6,2021-01-20_16h18.41.310,English_step1,2020.2.3,Win32,60,,,,,,,,,,,,,,,,,,,,,,,,,,,,,,,,,
right,1.50125,0,1,1,1,1,stim/VC_11.wav,5fb31c2b353c5ea37f63bdc6,2021-01-20_16h18.41.310,English_step1,2020.2.3,Win32,60,,,,,,,,,,,,,,,,,,,,,,,,,,,,,,,,,
,,,,,,,stim/VC_09.wav,5fb31c2b353c5ea37f63bdc6,2021-01-20_16h18.41.310,English_step1,2020.2.3,Win32,60,space,3.336635,right,1.270735,0,0,0,8,1,,,,,,,,,,,,,,,,,,,,,,,,
,,,,,,,stim/VC_11.wav,5fb31c2b353c5ea37f63bdc6,2021-01-20_16h18.41.310,English_step1,2020.2.3,Win32,60,,,right,0.94697,0,1,1,10,1,,,,,,,,,,,,,,,,,,,,,,,,
,,,,,,,stim/VC_05.wav,5fb31c2b353c5ea37f63bdc6,2021-01-20_16h18.41.310,English_step1,2020.2.3,Win32,60,,,left,1.02315,0,2,2,4,1,,,,,,,,,,,,,,,,,,,,,,,,
,,,,,,,stim/VC_10.wav,5fb31c2b353c5ea37f63bdc6,2021-01-20_16h18.41.310,English_step1,2020.2.3,Win32,60,,,right,2.20144,0,3,3,9,1,,,,,,,,,,,,,,,,,,,,,,,,
,,,,,,,stim/VC_02.wav,5fb31c2b353c5ea37f63bdc6,2021-01-20_16h18.41.310,English_step1,2020.2.3,Win32,60,,,left,2.4812,0,4,4,1,1,,,,,,,,,,,,,,,,,,,,,,,,
,,,,,,,stim/VC_04.wav,5fb31c2b353c5ea37f63bdc6,2021-01-20_16h18.41.310,English_step1,2020.2.3,Win32,60,,,left,1.05857,0,5,5,3,1,,,,,,,,,,,,,,,,,,,,,,,,
,,,,,,,stim/VC_06.wav,5fb31c2b353c5ea37f63bdc6,2021-01-20_16h18.41.310,English_step1,2020.2.3,Win32,60,,,left,1.1173,0,6,6,5,1,,,,,,,,,,,,,,,,,,,,,,,,
,,,,,,,stim/VC_07.wav,5fb31c2b353c5ea37f63bdc6,2021-01-20_16h18.41.310,English_step1,2020.2.3,Win32,60,,,left,0.91383,0,7,7,6,1,,,,,,,,,,,,,,,,,,,,,,,,
,,,,,,,stim/VC_01.wav,5fb31c2b353c5ea37f63bdc6,2021-01-20_16h18.41.310,English_step1,2020.2.3,Win32,60,,,left,1.21749,0,8,8,0,1,,,,,,,,,,,,,,,,,,,,,,,,
,,,,,,,stim/VC_03.wav,5fb31c2b353c5ea37f63bdc6,2021-01-20_16h18.41.310,English_step1,2020.2.3,Win32,60,,,left,0.94659,0,9,9,2,1,,,,,,,,,,,,,,,,,,,,,,,,
,,,,,,,stim/VC_08.wav,5fb31c2b353c5ea37f63bdc6,2021-01-20_16h18.41.310,English_step1,2020.2.3,Win32,60,,,right,0.82907,0,10,10,7,1,,,,,,,,,,,,,,,,,,,,,,,,
,,,,,,,stim/VC_08.wav,5fb31c2b353c5ea37f63bdc6,2021-01-20_16h18.41.310,English_step1,2020.2.3,Win32,60,,,right,0.80088,1,0,11,7,1,,,,,,,,,,,,,,,,,,,,,,,,
,,,,,,,stim/VC_06.wav,5fb31c2b353c5ea37f63bdc6,2021-01-20_16h18.41.310,English_step1,2020.2.3,Win32,60,,,right,0.85264,1,1,12,5,1,,,,,,,,,,,,,,,,,,,,,,,,
,,,,,,,stim/VC_10.wav,5fb31c2b353c5ea37f63bdc6,2021-01-20_16h18.41.310,English_step1,2020.2.3,Win32,60,,,right,0.95101,1,2,13,9,1,,,,,,,,,,,,,,,,,,,,,,,,
,,,,,,,stim/VC_05.wav,5fb31c2b353c5ea37f63bdc6,2021-01-20_16h18.41.310,English_step1,2020.2.3,Win32,60,,,left,0.93172,1,3,14,4,1,,,,,,,,,,,,,,,,,,,,,,,,
,,,,,,,stim/VC_03.wav,5fb31c2b353c5ea37f63bdc6,2021-01-20_16h18.41.310,English_step1,2020.2.3,Win32,60,,,left,0.78713,1,4,15,2,1,,,,,,,,,,,,,,,,,,,,,,,,
,,,,,,,stim/VC_02.wav,5fb31c2b353c5ea37f63bdc6,2021-01-20_16h18.41.310,English_step1,2020.2.3,Win32,60,,,left,0.81059,1,5,16,1,1,,,,,,,,,,,,,,,,,,,,,,,,
,,,,,,,stim/VC_07.wav,5fb31c2b353c5ea37f63bdc6,2021-01-20_16h18.41.310,English_step1,2020.2.3,Win32,60,,,right,0.898365,1,6,17,6,1,,,,,,,,,,,,,,,,,,,,,,,,
,,,,,,,stim/VC_04.wav,5fb31c2b353c5ea37f63bdc6,2021-01-20_16h18.41.310,English_step1,2020.2.3,Win32,60,,,left,0.781355,1,7,18,3,1,,,,,,,,,,,,,,,,,,,,,,,,
,,,,,,,stim/VC_01.wav,5fb31c2b353c5ea37f63bdc6,2021-01-20_16h18.41.310,English_step1,2020.2.3,Win32,60,,,left,1.060345,1,8,19,0,1,,,,,,,,,,,,,,,,,,,,,,,,
,,,,,,,stim/VC_11.wav,5fb31c2b353c5ea37f63bdc6,2021-01-20_16h18.41.310,English_step1,2020.2.3,Win32,60,,,right,0.91944,1,9,20,10,1,,,,,,,,,,,,,,,,,,,,,,,,
,,,,,,,stim/VC_09.wav,5fb31c2b353c5ea37f63bdc6,2021-01-20_16h18.41.310,English_step1,2020.2.3,Win32,60,,,right,2.3337,1,10,21,8,1,,,,,,,,,,,,,,,,,,,,,,,,
,,,,,,,stim/VC_08.wav,5fb31c2b353c5ea37f63bdc6,2021-01-20_16h18.41.310,English_step1,2020.2.3,Win32,60,,,right,0.87849,2,0,22,7,1,,,,,,,,,,,,,,,,,,,,,,,,
,,,,,,,stim/VC_02.wav,5fb31c2b353c5ea37f63bdc6,2021-01-20_16h18.41.310,English_step1,2020.2.3,Win32,60,,,left,0.840365,2,1,23,1,1,,,,,,,,,,,,,,,,,,,,,,,,
,,,,,,,stim/VC_11.wav,5fb31c2b353c5ea37f63bdc6,2021-01-20_16h18.41.310,English_step1,2020.2.3,Win32,60,,,right,0.667645,2,2,24,10,1,,,,,,,,,,,,,,,,,,,,,,,,
,,,,,,,stim/VC_07.wav,5fb31c2b353c5ea37f63bdc6,2021-01-20_16h18.41.310,English_step1,2020.2.3,Win32,60,,,right,0.861,2,3,25,6,1,,,,,,,,,,,,,,,,,,,,,,,,
,,,,,,,stim/VC_01.wav,5fb31c2b353c5ea37f63bdc6,2021-01-20_16h18.41.310,English_step1,2020.2.3,Win32,60,,,left,0.719425,2,4,26,0,1,,,,,,,,,,,,,,,,,,,,,,,,
,,,,,,,stim/VC_10.wav,5fb31c2b353c5ea37f63bdc6,2021-01-20_16h18.41.310,English_step1,2020.2.3,Win32,60,,,right,0.672065,2,5,27,9,1,,,,,,,,,,,,,,,,,,,,,,,,
,,,,,,,stim/VC_04.wav,5fb31c2b353c5ea37f63bdc6,2021-01-20_16h18.41.310,English_step1,2020.2.3,Win32,60,,,left,0.84657,2,6,28,3,1,,,,,,,,,,,,,,,,,,,,,,,,
,,,,,,,stim/VC_03.wav,5fb31c2b353c5ea37f63bdc6,2021-01-20_16h18.41.310,English_step1,2020.2.3,Win32,60,,,left,0.65105,2,7,29,2,1,,,,,,,,,,,,,,,,,,,,,,,,
,,,,,,,stim/VC_09.wav,5fb31c2b353c5ea37f63bdc6,2021-01-20_16h18.41.310,English_step1,2020.2.3,Win32,60,,,right,0.68404,2,8,30,8,1,,,,,,,,,,,,,,,,,,,,,,,,
,,,,,,,stim/VC_06.wav,5fb31c2b353c5ea37f63bdc6,2021-01-20_16h18.41.310,English_step1,2020.2.3,Win32,60,,,left,1.02892,2,9,31,5,1,,,,,,,,,,,,,,,,,,,,,,,,
,,,,,,,stim/VC_05.wav,5fb31c2b353c5ea37f63bdc6,2021-01-20_16h18.41.310,English_step1,2020.2.3,Win32,60,,,left,0.740185,2,10,32,4,1,,,,,,,,,,,,,,,,,,,,,,,,
,,,,,,,stim/VC_08.wav,5fb31c2b353c5ea37f63bdc6,2021-01-20_16h18.41.310,English_step1,2020.2.3,Win32,60,,,right,2.991355,,,,,,4,0,4.2864,0,0,0,7,1,,,,,,,,,,,,,,,,
,,,,,,,stim/VC_06.wav,5fb31c2b353c5ea37f63bdc6,2021-01-20_16h18.41.310,English_step1,2020.2.3,Win32,60,,,left,1.062085,,,,,,,,,0,1,1,5,1,,,,,,,,,,,,,,,,
,,,,,,,stim/VC_10.wav,5fb31c2b353c5ea37f63bdc6,2021-01-20_16h18.41.310,English_step1,2020.2.3,Win32,60,,,right,1.52201,,,,,,,,,0,2,2,9,1,,,,,,,,,,,,,,,,
,,,,,,,stim/VC_02.wav,5fb31c2b353c5ea37f63bdc6,2021-01-20_16h18.41.310,English_step1,2020.2.3,Win32,60,,,left,0.87379,,,,,,,,,0,3,3,1,1,,,,,,,,,,,,,,,,
,,,,,,,stim/VC_07.wav,5fb31c2b353c5ea37f63bdc6,2021-01-20_16h18.41.310,English_step1,2020.2.3,Win32,60,,,right,4.42273,,,,,,,,,0,4,4,6,1,,,,,,,,,,,,,,,,
,,,,,,,stim/VC_01.wav,5fb31c2b353c5ea37f63bdc6,2021-01-20_16h18.41.310,English_step1,2020.2.3,Win32,60,,,left,0.733595,,,,,,,,,0,5,5,0,1,,,,,,,,,,,,,,,,
,,,,,,,stim/VC_05.wav,5fb31c2b353c5ea37f63bdc6,2021-01-20_16h18.41.310,English_step1,2020.2.3,Win32,60,,,left,0.66759,,,,,,,,,0,6,6,4,1,,,,,,,,,,,,,,,,
,,,,,,,stim/VC_11.wav,5fb31c2b353c5ea37f63bdc6,2021-01-20_16h18.41.310,English_step1,2020.2.3,Win32,60,,,right,0.69215,,,,,,,,,0,7,7,10,1,,,,,,,,,,,,,,,,
,,,,,,,stim/VC_04.wav,5fb31c2b353c5ea37f63bdc6,2021-01-20_16h18.41.310,English_step1,2020.2.3,Win32,60,,,left,0.881745,,,,,,,,,0,8,8,3,1,,,,,,,,,,,,,,,,
,,,,,,,stim/VC_03.wav,5fb31c2b353c5ea37f63bdc6,2021-01-20_16h18.41.310,English_step1,2020.2.3,Win32,60,,,left,0.617465,,,,,,,,,0,9,9,2,1,,,,,,,,,,,,,,,,
,,,,,,,stim/VC_09.wav,5fb31c2b353c5ea37f63bdc6,2021-01-20_16h18.41.310,English_step1,2020.2.3,Win32,60,,,right,1.26132,,,,,,,,,0,10,10,8,1,,,,,,,,,,,,,,,,
,,,,,,,stim/VC_04.wav,5fb31c2b353c5ea37f63bdc6,2021-01-20_16h18.41.310,English_step1,2020.2.3,Win32,60,,,left,0.692065,,,,,,,,,1,0,11,3,1,,,,,,,,,,,,,,,,
,,,,,,,stim/VC_09.wav,5fb31c2b353c5ea37f63bdc6,2021-01-20_16h18.41.310,English_step1,2020.2.3,Win32,60,,,right,0.736825,,,,,,,,,1,1,12,8,1,,,,,,,,,,,,,,,,
,,,,,,,stim/VC_01.wav,5fb31c2b353c5ea37f63bdc6,2021-01-20_16h18.41.310,English_step1,2020.2.3,Win32,60,,,left,0.600015,,,,,,,,,1,2,13,0,1,,,,,,,,,,,,,,,,
,,,,,,,stim/VC_02.wav,5fb31c2b353c5ea37f63bdc6,2021-01-20_16h18.41.310,English_step1,2020.2.3,Win32,60,,,left,0.64359,,,,,,,,,1,3,14,1,1,,,,,,,,,,,,,,,,
,,,,,,,stim/VC_10.wav,5fb31c2b353c5ea37f63bdc6,2021-01-20_16h18.41.310,English_step1,2020.2.3,Win32,60,,,right,0.81568,,,,,,,,,1,4,15,9,1,,,,,,,,,,,,,,,,
,,,,,,,stim/VC_05.wav,5fb31c2b353c5ea37f63bdc6,2021-01-20_16h18.41.310,English_step1,2020.2.3,Win32,60,,,left,0.76031,,,,,,,,,1,5,16,4,1,,,,,,,,,,,,,,,,
,,,,,,,stim/VC_03.wav,5fb31c2b353c5ea37f63bdc6,2021-01-20_16h18.41.310,English_step1,2020.2.3,Win32,60,,,left,1.08388,,,,,,,,,1,6,17,2,1,,,,,,,,,,,,,,,,
,,,,,,,stim/VC_06.wav,5fb31c2b353c5ea37f63bdc6,2021-01-20_16h18.41.310,English_step1,2020.2.3,Win32,60,,,left,0.77571,,,,,,,,,1,7,18,5,1,,,,,,,,,,,,,,,,
,,,,,,,stim/VC_07.wav,5fb31c2b353c5ea37f63bdc6,2021-01-20_16h18.41.310,English_step1,2020.2.3,Win32,60,,,right,0.8587,,,,,,,,,1,8,19,6,1,,,,,,,,,,,,,,,,
,,,,,,,stim/VC_11.wav,5fb31c2b353c5ea37f63bdc6,2021-01-20_16h18.41.310,English_step1,2020.2.3,Win32,60,,,right,0.692675,,,,,,,,,1,9,20,10,1,,,,,,,,,,,,,,,,
,,,,,,,stim/VC_08.wav,5fb31c2b353c5ea37f63bdc6,2021-01-20_16h18.41.310,English_step1,2020.2.3,Win32,60,,,right,0.75044,,,,,,,,,1,10,21,7,1,,,,,,,,,,,,,,,,
,,,,,,,stim2/pa-10.wav,5fb31c2b353c5ea37f63bdc6,2021-01-20_16h18.41.310,English_step1,2020.2.3,Win32,60,,,,,,,,,,,,,,,,,,right,3.468025,0,0,0,11,1,,,,,,,,,
,,,,,,,stim2/pa+45.wav,5fb31c2b353c5ea37f63bdc6,2021-01-20_16h18.41.310,English_step1,2020.2.3,Win32,60,,,,,,,,,,,,,,,,,,left,1.33502,0,1,1,8,1,,,,,,,,,
,,,,,,,stim2/pa+05.wav,5fb31c2b353c5ea37f63bdc6,2021-01-20_16h18.41.310,English_step1,2020.2.3,Win32,60,,,,,,,,,,,,,,,,,,left,1.79564,0,2,2,0,1,,,,,,,,,
,,,,,,,stim2/pa+25.wav,5fb31c2b353c5ea37f63bdc6,2021-01-20_16h18.41.310,English_step1,2020.2.3,Win32,60,,,,,,,,,,,,,,,,,,right,0.808415,0,3,3,4,1,,,,,,,,,
,,,,,,,stim2/pa-05.wav,5fb31c2b353c5ea37f63bdc6,2021-01-20_16h18.41.310,English_step1,2020.2.3,Win32,60,,,,,,,,,,,,,,,,,,left,1.325925,0,4,4,10,1,,,,,,,,,
,,,,,,,stim2/pa+40.wav,5fb31c2b353c5ea37f63bdc6,2021-01-20_16h18.41.310,English_step1,2020.2.3,Win32,60,,,,,,,,,,,,,,,,,,left,0.977845,0,5,5,7,1,,,,,,,,,
,,,,,,,stim2/pa+10.wav,5fb31c2b353c5ea37f63bdc6,2021-01-20_16h18.41.310,English_step1,2020.2.3,Win32,60,,,,,,,,,,,,,,,,,,left,1.11759,0,6,6,1,1,,,,,,,,,
,,,,,,,stim2/pa+20.wav,5fb31c2b353c5ea37f63bdc6,2021-01-20_16h18.41.310,English_step1,2020.2.3,Win32,60,,,,,,,,,,,,,,,,,,right,1.272995,0,7,7,3,1,,,,,,,,,
,,,,,,,stim2/pa+15.wav,5fb31c2b353c5ea37f63bdc6,2021-01-20_16h18.41.310,English_step1,2020.2.3,Win32,60,,,,,,,,,,,,,,,,,,right,1.08356,0,8,8,2,1,,,,,,,,,
,,,,,,,stim2/pa+50.wav,5fb31c2b353c5ea37f63bdc6,2021-01-20_16h18.41.310,English_step1,2020.2.3,Win32,60,,,,,,,,,,,,,,,,,,left,0.709495,0,9,9,9,1,,,,,,,,,
,,,,,,,stim2/pa-15.wav,5fb31c2b353c5ea37f63bdc6,2021-01-20_16h18.41.310,English_step1,2020.2.3,Win32,60,,,,,,,,,,,,,,,,,,right,0.65491,0,10,10,12,1,,,,,,,,,
,,,,,,,stim2/pa-35.wav,5fb31c2b353c5ea37f63bdc6,2021-01-20_16h18.41.310,English_step1,2020.2.3,Win32,60,,,,,,,,,,,,,,,,,,right,0.72734,0,11,11,16,1,,,,,,,,,
,,,,,,,stim2/pa-25.wav,5fb31c2b353c5ea37f63bdc6,2021-01-20_16h18.41.310,English_step1,2020.2.3,Win32,60,,,,,,,,,,,,,,,,,,right,0.60871,0,12,12,14,1,,,,,,,,,
,,,,,,,stim2/pa-20.wav,5fb31c2b353c5ea37f63bdc6,2021-01-20_16h18.41.310,English_step1,2020.2.3,Win32,60,,,,,,,,,,,,,,,,,,right,0.70141,0,13,13,13,1,,,,,,,,,
,,,,,,,stim2/pa+30.wav,5fb31c2b353c5ea37f63bdc6,2021-01-20_16h18.41.310,English_step1,2020.2.3,Win32,60,,,,,,,,,,,,,,,,,,right,0.788435,0,14,14,5,1,,,,,,,,,
,,,,,,,stim2/pa+35.wav,5fb31c2b353c5ea37f63bdc6,2021-01-20_16h18.41.310,English_step1,2020.2.3,Win32,60,,,,,,,,,,,,,,,,,,right,0.67583,0,15,15,6,1,,,,,,,,,
,,,,,,,stim2/pa-30.wav,5fb31c2b353c5ea37f63bdc6,2021-01-20_16h18.41.310,English_step1,2020.2.3,Win32,60,,,,,,,,,,,,,,,,,,right,0.72054,0,16,16,15,1,,,,,,,,,
,,,,,,,stim2/pa+40.wav,5fb31c2b353c5ea37f63bdc6,2021-01-20_16h18.41.310,English_step1,2020.2.3,Win32,60,,,,,,,,,,,,,,,,,,left,0.586455,1,0,17,7,1,,,,,,,,,
,,,,,,,stim2/pa-35.wav,5fb31c2b353c5ea37f63bdc6,2021-01-20_16h18.41.310,English_step1,2020.2.3,Win32,60,,,,,,,,,,,,,,,,,,right,0.84638,1,1,18,16,1,,,,,,,,,
,,,,,,,stim2/pa+05.wav,5fb31c2b353c5ea37f63bdc6,2021-01-20_16h18.41.310,English_step1,2020.2.3,Win32,60,,,,,,,,,,,,,,,,,,left,0.600895,1,2,19,0,1,,,,,,,,,
,,,,,,,stim2/pa-05.wav,5fb31c2b353c5ea37f63bdc6,2021-01-20_16h18.41.310,English_step1,2020.2.3,Win32,60,,,,,,,,,,,,,,,,,,left,0.593365,1,3,20,10,1,,,,,,,,,
,,,,,,,stim2/pa+35.wav,5fb31c2b353c5ea37f63bdc6,2021-01-20_16h18.41.310,English_step1,2020.2.3,Win32,60,,,,,,,,,,,,,,,,,,left,0.575485,1,4,21,6,1,,,,,,,,,
,,,,,,,stim2/pa-25.wav,5fb31c2b353c5ea37f63bdc6,2021-01-20_16h18.41.310,English_step1,2020.2.3,Win32,60,,,,,,,,,,,,,,,,,,right,0.51991,1,5,22,14,1,,,,,,,,,
,,,,,,,stim2/pa+10.wav,5fb31c2b353c5ea37f63bdc6,2021-01-20_16h18.41.310,English_step1,2020.2.3,Win32,60,,,,,,,,,,,,,,,,,,left,0.600855,1,6,23,1,1,,,,,,,,,
,,,,,,,stim2/pa+45.wav,5fb31c2b353c5ea37f63bdc6,2021-01-20_16h18.41.310,English_step1,2020.2.3,Win32,60,,,,,,,,,,,,,,,,,,right,0.677425,1,7,24,8,1,,,,,,,,,
,,,,,,,stim2/pa-20.wav,5fb31c2b353c5ea37f63bdc6,2021-01-20_16h18.41.310,English_step1,2020.2.3,Win32,60,,,,,,,,,,,,,,,,,,right,0.67318,1,8,25,13,1,,,,,,,,,
,,,,,,,stim2/pa+20.wav,5fb31c2b353c5ea37f63bdc6,2021-01-20_16h18.41.310,English_step1,2020.2.3,Win32,60,,,,,,,,,,,,,,,,,,left,0.81279,1,9,26,3,1,,,,,,,,,
,,,,,,,stim2/pa-10.wav,5fb31c2b353c5ea37f63bdc6,2021-01-20_16h18.41.310,English_step1,2020.2.3,Win32,60,,,,,,,,,,,,,,,,,,right,0.69506,1,10,27,11,1,,,,,,,,,
,,,,,,,stim2/pa-15.wav,5fb31c2b353c5ea37f63bdc6,2021-01-20_16h18.41.310,English_step1,2020.2.3,Win32,60,,,,,,,,,,,,,,,,,,right,0.607435,1,11,28,12,1,,,,,,,,,
,,,,,,,stim2/pa-30.wav,5fb31c2b353c5ea37f63bdc6,2021-01-20_16h18.41.310,English_step1,2020.2.3,Win32,60,,,,,,,,,,,,,,,,,,right,0.70283,1,12,29,15,1,,,,,,,,,
,,,,,,,stim2/pa+15.wav,5fb31c2b353c5ea37f63bdc6,2021-01-20_16h18.41.310,English_step1,2020.2.3,Win32,60,,,,,,,,,,,,,,,,,,left,0.53524,1,13,30,2,1,,,,,,,,,
,,,,,,,stim2/pa+25.wav,5fb31c2b353c5ea37f63bdc6,2021-01-20_16h18.41.310,English_step1,2020.2.3,Win32,60,,,,,,,,,,,,,,,,,,left,0.570565,1,14,31,4,1,,,,,,,,,
,,,,,,,stim2/pa+50.wav,5fb31c2b353c5ea37f63bdc6,2021-01-20_16h18.41.310,English_step1,2020.2.3,Win32,60,,,,,,,,,,,,,,,,,,left,0.763105,1,15,32,9,1,,,,,,,,,
,,,,,,,stim2/pa+30.wav,5fb31c2b353c5ea37f63bdc6,2021-01-20_16h18.41.310,English_step1,2020.2.3,Win32,60,,,,,,,,,,,,,,,,,,left,0.98148,1,16,33,5,1,,,,,,,,,
,,,,,,,stim2/pa+15.wav,5fb31c2b353c5ea37f63bdc6,2021-01-20_16h18.41.310,English_step1,2020.2.3,Win32,60,,,,,,,,,,,,,,,,,,left,0.691195,2,0,34,2,1,,,,,,,,,
,,,,,,,stim2/pa-25.wav,5fb31c2b353c5ea37f63bdc6,2021-01-20_16h18.41.310,English_step1,2020.2.3,Win32,60,,,,,,,,,,,,,,,,,,right,0.514765,2,1,35,14,1,,,,,,,,,
,,,,,,,stim2/pa-30.wav,5fb31c2b353c5ea37f63bdc6,2021-01-20_16h18.41.310,English_step1,2020.2.3,Win32,60,,,,,,,,,,,,,,,,,,right,0.653455,2,2,36,15,1,,,,,,,,,
,,,,,,,stim2/pa+25.wav,5fb31c2b353c5ea37f63bdc6,2021-01-20_16h18.41.310,English_step1,2020.2.3,Win32,60,,,,,,,,,,,,,,,,,,right,0.724675,2,3,37,4,1,,,,,,,,,
,,,,,,,stim2/pa+40.wav,5fb31c2b353c5ea37f63bdc6,2021-01-20_16h18.41.310,English_step1,2020.2.3,Win32,60,,,,,,,,,,,,,,,,,,right,0.773845,2,4,38,7,1,,,,,,,,,
,,,,,,,stim2/pa-10.wav,5fb31c2b353c5ea37f63bdc6,2021-01-20_16h18.41.310,English_step1,2020.2.3,Win32,60,,,,,,,,,,,,,,,,,,right,0.75318,2,5,39,11,1,,,,,,,,,
,,,,,,,stim2/pa-15.wav,5fb31c2b353c5ea37f63bdc6,2021-01-20_16h18.41.310,English_step1,2020.2.3,Win32,60,,,,,,,,,,,,,,,,,,right,0.568945,2,6,40,12,1,,,,,,,,,
,,,,,,,stim2/pa+05.wav,5fb31c2b353c5ea37f63bdc6,2021-01-20_16h18.41.310,English_step1,2020.2.3,Win32,60,,,,,,,,,,,,,,,,,,left,0.538565,2,7,41,0,1,,,,,,,,,
,,,,,,,stim2/pa+30.wav,5fb31c2b353c5ea37f63bdc6,2021-01-20_16h18.41.310,English_step1,2020.2.3,Win32,60,,,,,,,,,,,,,,,,,,left,0.517835,2,8,42,5,1,,,,,,,,,
,,,,,,,stim2/pa-35.wav,5fb31c2b353c5ea37f63bdc6,2021-01-20_16h18.41.310,English_step1,2020.2.3,Win32,60,,,,,,,,,,,,,,,,,,right,0.560445,2,9,43,16,1,,,,,,,,,
,,,,,,,stim2/pa+20.wav,5fb31c2b353c5ea37f63bdc6,2021-01-20_16h18.41.310,English_step1,2020.2.3,Win32,60,,,,,,,,,,,,,,,,,,left,0.55953,2,10,44,3,1,,,,,,,,,
,,,,,,,stim2/pa+10.wav,5fb31c2b353c5ea37f63bdc6,2021-01-20_16h18.41.310,English_step1,2020.2.3,Win32,60,,,,,,,,,,,,,,,,,,left,0.951475,2,11,45,1,1,,,,,,,,,
,,,,,,,stim2/pa+35.wav,5fb31c2b353c5ea37f63bdc6,2021-01-20_16h18.41.310,English_step1,2020.2.3,Win32,60,,,,,,,,,,,,,,,,,,left,1.126405,2,12,46,6,1,,,,,,,,,
,,,,,,,stim2/pa-05.wav,5fb31c2b353c5ea37f63bdc6,2021-01-20_16h18.41.310,English_step1,2020.2.3,Win32,60,,,,,,,,,,,,,,,,,,left,1.094025,2,13,47,10,1,,,,,,,,,
,,,,,,,stim2/pa-20.wav,5fb31c2b353c5ea37f63bdc6,2021-01-20_16h18.41.310,English_step1,2020.2.3,Win32,60,,,,,,,,,,,,,,,,,,right,0.53805,2,14,48,13,1,,,,,,,,,
,,,,,,,stim2/pa+50.wav,5fb31c2b353c5ea37f63bdc6,2021-01-20_16h18.41.310,English_step1,2020.2.3,Win32,60,,,,,,,,,,,,,,,,,,left,0.69362,2,15,49,9,1,,,,,,,,,
,,,,,,,stim2/pa+45.wav,5fb31c2b353c5ea37f63bdc6,2021-01-20_16h18.41.310,English_step1,2020.2.3,Win32,60,,,,,,,,,,,,,,,,,,right,0.87728,2,16,50,8,1,,,,,,,,,
,,,,,,,stim2/pa+10.wav,5fb31c2b353c5ea37f63bdc6,2021-01-20_16h18.41.310,English_step1,2020.2.3,Win32,60,,,,,,,,,,,,,,,,,,left,0.960805,,,,,,q,1.82204,0,0,0,1,1,,
,,,,,,,stim2/pa-30.wav,5fb31c2b353c5ea37f63bdc6,2021-01-20_16h18.41.310,English_step1,2020.2.3,Win32,60,,,,,,,,,,,,,,,,,,right,0.676815,,,,,,,,0,1,1,15,1,,
,,,,,,,stim2/pa+40.wav,5fb31c2b353c5ea37f63bdc6,2021-01-20_16h18.41.310,English_step1,2020.2.3,Win32,60,,,,,,,,,,,,,,,,,,left,0.68477,,,,,,,,0,2,2,7,1,,
,,,,,,,stim2/pa+50.wav,5fb31c2b353c5ea37f63bdc6,2021-01-20_16h18.41.310,English_step1,2020.2.3,Win32,60,,,,,,,,,,,,,,,,,,right,2.062155,,,,,,,,0,3,3,9,1,,
,,,,,,,stim2/pa+05.wav,5fb31c2b353c5ea37f63bdc6,2021-01-20_16h18.41.310,English_step1,2020.2.3,Win32,60,,,,,,,,,,,,,,,,,,left,1.949,,,,,,,,0,4,4,0,1,,
,,,,,,,stim2/pa-05.wav,5fb31c2b353c5ea37f63bdc6,2021-01-20_16h18.41.310,English_step1,2020.2.3,Win32,60,,,,,,,,,,,,,,,,,,right,0.685015,,,,,,,,0,5,5,10,1,,
,,,,,,,stim2/pa-10.wav,5fb31c2b353c5ea37f63bdc6,2021-01-20_16h18.41.310,English_step1,2020.2.3,Win32,60,,,,,,,,,,,,,,,,,,right,0.72111,,,,,,,,0,6,6,11,1,,
,,,,,,,stim2/pa-15.wav,5fb31c2b353c5ea37f63bdc6,2021-01-20_16h18.41.310,English_step1,2020.2.3,Win32,60,,,,,,,,,,,,,,,,,,right,0.60817,,,,,,,,0,7,7,12,1,,
,,,,,,,stim2/pa-25.wav,5fb31c2b353c5ea37f63bdc6,2021-01-20_16h18.41.310,English_step1,2020.2.3,Win32,60,,,,,,,,,,,,,,,,,,right,0.60091,,,,,,,,0,8,8,14,1,,
,,,,,,,stim2/pa+15.wav,5fb31c2b353c5ea37f63bdc6,2021-01-20_16h18.41.310,English_step1,2020.2.3,Win32,60,,,,,,,,,,,,,,,,,,left,0.45185,,,,,,,,0,9,9,2,1,,
,,,,,,,stim2/pa+25.wav,5fb31c2b353c5ea37f63bdc6,2021-01-20_16h18.41.310,English_step1,2020.2.3,Win32,60,,,,,,,,,,,,,,,,,,left,0.61435,,,,,,,,0,10,10,4,1,,
,,,,,,,stim2/pa-20.wav,5fb31c2b353c5ea37f63bdc6,2021-01-20_16h18.41.310,English_step1,2020.2.3,Win32,60,,,,,,,,,,,,,,,,,,right,0.43902,,,,,,,,0,11,11,13,1,,
,,,,,,,stim2/pa+45.wav,5fb31c2b353c5ea37f63bdc6,2021-01-20_16h18.41.310,English_step1,2020.2.3,Win32,60,,,,,,,,,,,,,,,,,,left,0.688715,,,,,,,,0,12,12,8,1,,
,,,,,,,stim2/pa+35.wav,5fb31c2b353c5ea37f63bdc6,2021-01-20_16h18.41.310,English_step1,2020.2.3,Win32,60,,,,,,,,,,,,,,,,,,left,1.484815,,,,,,,,0,13,13,6,1,,
,,,,,,,stim2/pa-35.wav,5fb31c2b353c5ea37f63bdc6,2021-01-20_16h18.41.310,English_step1,2020.2.3,Win32,60,,,,,,,,,,,,,,,,,,right,0.53635,,,,,,,,0,14,14,16,1,,
,,,,,,,stim2/pa+30.wav,5fb31c2b353c5ea37f63bdc6,2021-01-20_16h18.41.310,English_step1,2020.2.3,Win32,60,,,,,,,,,,,,,,,,,,right,1.084415,,,,,,,,0,15,15,5,1,,
,,,,,,,stim2/pa+20.wav,5fb31c2b353c5ea37f63bdc6,2021-01-20_16h18.41.310,English_step1,2020.2.3,Win32,60,,,,,,,,,,,,,,,,,,left,0.83205,,,,,,,,0,16,16,3,1,,
,,,,,,,stim2/pa+20.wav,5fb31c2b353c5ea37f63bdc6,2021-01-20_16h18.41.310,English_step1,2020.2.3,Win32,60,,,,,,,,,,,,,,,,,,right,0.752035,,,,,,,,1,0,17,3,1,,
,,,,,,,stim2/pa+05.wav,5fb31c2b353c5ea37f63bdc6,2021-01-20_16h18.41.310,English_step1,2020.2.3,Win32,60,,,,,,,,,,,,,,,,,,left,0.614125,,,,,,,,1,1,18,0,1,,
,,,,,,,stim2/pa+15.wav,5fb31c2b353c5ea37f63bdc6,2021-01-20_16h18.41.310,English_step1,2020.2.3,Win32,60,,,,,,,,,,,,,,,,,,left,1.02913,,,,,,,,1,2,19,2,1,,
,,,,,,,stim2/pa+45.wav,5fb31c2b353c5ea37f63bdc6,2021-01-20_16h18.41.310,English_step1,2020.2.3,Win32,60,,,,,,,,,,,,,,,,,,left,0.868945,,,,,,,,1,3,20,8,1,,
,,,,,,,stim2/pa-05.wav,5fb31c2b353c5ea37f63bdc6,2021-01-20_16h18.41.310,English_step1,2020.2.3,Win32,60,,,,,,,,,,,,,,,,,,right,0.492845,,,,,,,,1,4,21,10,1,,
,,,,,,,stim2/pa+50.wav,5fb31c2b353c5ea37f63bdc6,2021-01-20_16h18.41.310,English_step1,2020.2.3,Win32,60,,,,,,,,,,,,,,,,,,left,0.74516,,,,,,,,1,5,22,9,1,,
,,,,,,,stim2/pa+40.wav,5fb31c2b353c5ea37f63bdc6,2021-01-20_16h18.41.310,English_step1,2020.2.3,Win32,60,,,,,,,,,,,,,,,,,,right,0.551795,,,,,,,,1,6,23,7,1,,
,,,,,,,stim2/pa-20.wav,5fb31c2b353c5ea37f63bdc6,2021-01-20_16h18.41.310,English_step1,2020.2.3,Win32,60,,,,,,,,,,,,,,,,,,left,0.745325,,,,,,,,1,7,24,13,1,,
,,,,,,,stim2/pa+35.wav,5fb31c2b353c5ea37f63bdc6,2021-01-20_16h18.41.310,English_step1,2020.2.3,Win32,60,,,,,,,,,,,,,,,,,,right,0.735475,,,,,,,,1,8,25,6,1,,
,,,,,,,stim2/pa+25.wav,5fb31c2b353c5ea37f63bdc6,2021-01-20_16h18.41.310,English_step1,2020.2.3,Win32,60,,,,,,,,,,,,,,,,,,right,0.784405,,,,,,,,1,9,26,4,1,,
,,,,,,,stim2/pa-15.wav,5fb31c2b353c5ea37f63bdc6,2021-01-20_16h18.41.310,English_step1,2020.2.3,Win32,60,,,,,,,,,,,,,,,,,,right,0.56756,,,,,,,,1,10,27,12,1,,
,,,,,,,stim2/pa-30.wav,5fb31c2b353c5ea37f63bdc6,2021-01-20_16h18.41.310,English_step1,2020.2.3,Win32,60,,,,,,,,,,,,,,,,,,right,0.538635,,,,,,,,1,11,28,15,1,,
,,,,,,,stim2/pa+30.wav,5fb31c2b353c5ea37f63bdc6,2021-01-20_16h18.41.310,English_step1,2020.2.3,Win32,60,,,,,,,,,,,,,,,,,,right,0.91038,,,,,,,,1,12,29,5,1,,
,,,,,,,stim2/pa+10.wav,5fb31c2b353c5ea37f63bdc6,2021-01-20_16h18.41.310,English_step1,2020.2.3,Win32,60,,,,,,,,,,,,,,,,,,right,0.807685,,,,,,,,1,13,30,1,1,,
,,,,,,,stim2/pa-25.wav,5fb31c2b353c5ea37f63bdc6,2021-01-20_16h18.41.310,English_step1,2020.2.3,Win32,60,,,,,,,,,,,,,,,,,,right,1.141805,,,,,,,,1,14,31,14,1,,
,,,,,,,stim2/pa-35.wav,5fb31c2b353c5ea37f63bdc6,2021-01-20_16h18.41.310,English_step1,2020.2.3,Win32,60,,,,,,,,,,,,,,,,,,right,0.54139,,,,,,,,1,15,32,16,1,,
,,,,,,,stim2/pa-10.wav,5fb31c2b353c5ea37f63bdc6,2021-01-20_16h18.41.310,English_step1,2020.2.3,Win32,60,,,,,,,,,,,,,,,,,,right,0.67012,,,,,,,,1,16,33,11,1,,
,,,,,,,,5fb31c2b353c5ea37f63bdc6,2021-01-20_16h18.41.310,English_step1,2020.2.3,Win32,60,,,,,,,,,,,,,,,,,,,,,,,,,,,,,,,,space,14.317725
