resp.keys,resp.rt,trials.thisRepN,trials.thisTrialN,trials.thisN,trials.thisIndex,trials.ran,stimuli,participant,date,expName,psychopyVersion,OS,frameRate,gotResponse.keys,gotResponse.rt,resp_2.keys,resp_2.rt,trials_2.thisRepN,trials_2.thisTrialN,trials_2.thisN,trials_2.thisIndex,trials_2.ran,key_resp_3.keys,key_resp_3.corr,key_resp_3.rt,trials_4.thisRepN,trials_4.thisTrialN,trials_4.thisN,trials_4.thisIndex,trials_4.ran,resp_3.keys,resp_3.rt,trials_3.thisRepN,trials_3.thisTrialN,trials_3.thisN,trials_3.thisIndex,trials_3.ran,key_resp_2.keys,key_resp_2.rt,trials_5.thisRepN,trials_5.thisTrialN,trials_5.thisN,trials_5.thisIndex,trials_5.ran,key_resp.keys,key_resp.rt
right,17.08062,0,0,0,1,1,stim/VC_11.wav,5fd954357541e7448e28d079,2021-01-20_22h38.57.803,English_step1,2020.2.3,Win32,60,,,,,,,,,,,,,,,,,,,,,,,,,,,,,,,,,
left,1.940755,0,1,1,0,1,stim/VC_01.wav,5fd954357541e7448e28d079,2021-01-20_22h38.57.803,English_step1,2020.2.3,Win32,60,,,,,,,,,,,,,,,,,,,,,,,,,,,,,,,,,
,,,,,,,stim/VC_03.wav,5fd954357541e7448e28d079,2021-01-20_22h38.57.803,English_step1,2020.2.3,Win32,60,space,2.991235,left,3.211205,0,0,0,2,1,,,,,,,,,,,,,,,,,,,,,,,,
,,,,,,,stim/VC_08.wav,5fd954357541e7448e28d079,2021-01-20_22h38.57.803,English_step1,2020.2.3,Win32,60,,,left,1.276545,0,1,1,7,1,,,,,,,,,,,,,,,,,,,,,,,,
,,,,,,,stim/VC_10.wav,5fd954357541e7448e28d079,2021-01-20_22h38.57.803,English_step1,2020.2.3,Win32,60,,,right,1.00579,0,2,2,9,1,,,,,,,,,,,,,,,,,,,,,,,,
,,,,,,,stim/VC_06.wav,5fd954357541e7448e28d079,2021-01-20_22h38.57.803,English_step1,2020.2.3,Win32,60,,,right,0.778435,0,3,3,5,1,,,,,,,,,,,,,,,,,,,,,,,,
,,,,,,,stim/VC_05.wav,5fd954357541e7448e28d079,2021-01-20_22h38.57.803,English_step1,2020.2.3,Win32,60,,,left,0.752645,0,4,4,4,1,,,,,,,,,,,,,,,,,,,,,,,,
,,,,,,,stim/VC_11.wav,5fd954357541e7448e28d079,2021-01-20_22h38.57.803,English_step1,2020.2.3,Win32,60,,,right,0.72397,0,5,5,10,1,,,,,,,,,,,,,,,,,,,,,,,,
,,,,,,,stim/VC_02.wav,5fd954357541e7448e28d079,2021-01-20_22h38.57.803,English_step1,2020.2.3,Win32,60,,,left,0.586885,0,6,6,1,1,,,,,,,,,,,,,,,,,,,,,,,,
,,,,,,,stim/VC_01.wav,5fd954357541e7448e28d079,2021-01-20_22h38.57.803,English_step1,2020.2.3,Win32,60,,,left,0.732105,0,7,7,0,1,,,,,,,,,,,,,,,,,,,,,,,,
,,,,,,,stim/VC_09.wav,5fd954357541e7448e28d079,2021-01-20_22h38.57.803,English_step1,2020.2.3,Win32,60,,,right,0.75379,0,8,8,8,1,,,,,,,,,,,,,,,,,,,,,,,,
,,,,,,,stim/VC_04.wav,5fd954357541e7448e28d079,2021-01-20_22h38.57.803,English_step1,2020.2.3,Win32,60,,,left,0.736315,0,9,9,3,1,,,,,,,,,,,,,,,,,,,,,,,,
,,,,,,,stim/VC_07.wav,5fd954357541e7448e28d079,2021-01-20_22h38.57.803,English_step1,2020.2.3,Win32,60,,,right,4.82354,0,10,10,6,1,,,,,,,,,,,,,,,,,,,,,,,,
,,,,,,,stim/VC_03.wav,5fd954357541e7448e28d079,2021-01-20_22h38.57.803,English_step1,2020.2.3,Win32,60,,,left,0.709275,1,0,11,2,1,,,,,,,,,,,,,,,,,,,,,,,,
,,,,,,,stim/VC_10.wav,5fd954357541e7448e28d079,2021-01-20_22h38.57.803,English_step1,2020.2.3,Win32,60,,,right,0.632925,1,1,12,9,1,,,,,,,,,,,,,,,,,,,,,,,,
,,,,,,,stim/VC_09.wav,5fd954357541e7448e28d079,2021-01-20_22h38.57.803,English_step1,2020.2.3,Win32,60,,,right,0.75684,1,2,13,8,1,,,,,,,,,,,,,,,,,,,,,,,,
,,,,,,,stim/VC_02.wav,5fd954357541e7448e28d079,2021-01-20_22h38.57.803,English_step1,2020.2.3,Win32,60,,,left,0.663425,1,3,14,1,1,,,,,,,,,,,,,,,,,,,,,,,,
,,,,,,,stim/VC_05.wav,5fd954357541e7448e28d079,2021-01-20_22h38.57.803,English_step1,2020.2.3,Win32,60,,,left,2.62566,1,4,15,4,1,,,,,,,,,,,,,,,,,,,,,,,,
,,,,,,,stim/VC_11.wav,5fd954357541e7448e28d079,2021-01-20_22h38.57.803,English_step1,2020.2.3,Win32,60,,,right,0.68442,1,5,16,10,1,,,,,,,,,,,,,,,,,,,,,,,,
,,,,,,,stim/VC_07.wav,5fd954357541e7448e28d079,2021-01-20_22h38.57.803,English_step1,2020.2.3,Win32,60,,,right,0.83613,1,6,17,6,1,,,,,,,,,,,,,,,,,,,,,,,,
,,,,,,,stim/VC_08.wav,5fd954357541e7448e28d079,2021-01-20_22h38.57.803,English_step1,2020.2.3,Win32,60,,,right,0.78513,1,7,18,7,1,,,,,,,,,,,,,,,,,,,,,,,,
,,,,,,,stim/VC_06.wav,5fd954357541e7448e28d079,2021-01-20_22h38.57.803,English_step1,2020.2.3,Win32,60,,,left,1.39012,1,8,19,5,1,,,,,,,,,,,,,,,,,,,,,,,,
,,,,,,,stim/VC_04.wav,5fd954357541e7448e28d079,2021-01-20_22h38.57.803,English_step1,2020.2.3,Win32,60,,,left,0.784875,1,9,20,3,1,,,,,,,,,,,,,,,,,,,,,,,,
,,,,,,,stim/VC_01.wav,5fd954357541e7448e28d079,2021-01-20_22h38.57.803,English_step1,2020.2.3,Win32,60,,,left,0.974285,1,10,21,0,1,,,,,,,,,,,,,,,,,,,,,,,,
,,,,,,,stim/VC_11.wav,5fd954357541e7448e28d079,2021-01-20_22h38.57.803,English_step1,2020.2.3,Win32,60,,,right,0.731915,2,0,22,10,1,,,,,,,,,,,,,,,,,,,,,,,,
,,,,,,,stim/VC_10.wav,5fd954357541e7448e28d079,2021-01-20_22h38.57.803,English_step1,2020.2.3,Win32,60,,,right,0.80743,2,1,23,9,1,,,,,,,,,,,,,,,,,,,,,,,,
,,,,,,,stim/VC_08.wav,5fd954357541e7448e28d079,2021-01-20_22h38.57.803,English_step1,2020.2.3,Win32,60,,,right,0.84564,2,2,24,7,1,,,,,,,,,,,,,,,,,,,,,,,,
,,,,,,,stim/VC_04.wav,5fd954357541e7448e28d079,2021-01-20_22h38.57.803,English_step1,2020.2.3,Win32,60,,,left,0.778475,2,3,25,3,1,,,,,,,,,,,,,,,,,,,,,,,,
,,,,,,,stim/VC_07.wav,5fd954357541e7448e28d079,2021-01-20_22h38.57.803,English_step1,2020.2.3,Win32,60,,,right,0.783655,2,4,26,6,1,,,,,,,,,,,,,,,,,,,,,,,,
,,,,,,,stim/VC_09.wav,5fd954357541e7448e28d079,2021-01-20_22h38.57.803,English_step1,2020.2.3,Win32,60,,,right,0.713335,2,5,27,8,1,,,,,,,,,,,,,,,,,,,,,,,,
,,,,,,,stim/VC_02.wav,5fd954357541e7448e28d079,2021-01-20_22h38.57.803,English_step1,2020.2.3,Win32,60,,,left,0.686985,2,6,28,1,1,,,,,,,,,,,,,,,,,,,,,,,,
,,,,,,,stim/VC_01.wav,5fd954357541e7448e28d079,2021-01-20_22h38.57.803,English_step1,2020.2.3,Win32,60,,,left,0.84401,2,7,29,0,1,,,,,,,,,,,,,,,,,,,,,,,,
,,,,,,,stim/VC_03.wav,5fd954357541e7448e28d079,2021-01-20_22h38.57.803,English_step1,2020.2.3,Win32,60,,,left,0.78852,2,8,30,2,1,,,,,,,,,,,,,,,,,,,,,,,,
,,,,,,,stim/VC_05.wav,5fd954357541e7448e28d079,2021-01-20_22h38.57.803,English_step1,2020.2.3,Win32,60,,,left,1.446855,2,9,31,4,1,,,,,,,,,,,,,,,,,,,,,,,,
,,,,,,,stim/VC_06.wav,5fd954357541e7448e28d079,2021-01-20_22h38.57.803,English_step1,2020.2.3,Win32,60,,,left,0.844375,2,10,32,5,1,,,,,,,,,,,,,,,,,,,,,,,,
,,,,,,,stim/VC_04.wav,5fd954357541e7448e28d079,2021-01-20_22h38.57.803,English_step1,2020.2.3,Win32,60,,,left,3.101885,,,,,,4,0,24.08871,0,0,0,3,1,,,,,,,,,,,,,,,,
,,,,,,,stim/VC_06.wav,5fd954357541e7448e28d079,2021-01-20_22h38.57.803,English_step1,2020.2.3,Win32,60,,,left,0.963845,,,,,,,,,0,1,1,5,1,,,,,,,,,,,,,,,,
,,,,,,,stim/VC_10.wav,5fd954357541e7448e28d079,2021-01-20_22h38.57.803,English_step1,2020.2.3,Win32,60,,,left,0.11845,,,,,,,,,0,2,2,9,1,,,,,,,,,,,,,,,,
,,,,,,,stim/VC_01.wav,5fd954357541e7448e28d079,2021-01-20_22h38.57.803,English_step1,2020.2.3,Win32,60,,,left,1.194875,,,,,,,,,0,3,3,0,1,,,,,,,,,,,,,,,,
,,,,,,,stim/VC_11.wav,5fd954357541e7448e28d079,2021-01-20_22h38.57.803,English_step1,2020.2.3,Win32,60,,,right,0.77173,,,,,,,,,0,4,4,10,1,,,,,,,,,,,,,,,,
,,,,,,,stim/VC_02.wav,5fd954357541e7448e28d079,2021-01-20_22h38.57.803,English_step1,2020.2.3,Win32,60,,,left,2.238455,,,,,,,,,0,5,5,1,1,,,,,,,,,,,,,,,,
,,,,,,,stim/VC_07.wav,5fd954357541e7448e28d079,2021-01-20_22h38.57.803,English_step1,2020.2.3,Win32,60,,,right,1.776775,,,,,,,,,0,6,6,6,1,,,,,,,,,,,,,,,,
,,,,,,,stim/VC_03.wav,5fd954357541e7448e28d079,2021-01-20_22h38.57.803,English_step1,2020.2.3,Win32,60,,,left,1.212415,,,,,,,,,0,7,7,2,1,,,,,,,,,,,,,,,,
,,,,,,,stim/VC_09.wav,5fd954357541e7448e28d079,2021-01-20_22h38.57.803,English_step1,2020.2.3,Win32,60,,,right,0.65098,,,,,,,,,0,8,8,8,1,,,,,,,,,,,,,,,,
,,,,,,,stim/VC_05.wav,5fd954357541e7448e28d079,2021-01-20_22h38.57.803,English_step1,2020.2.3,Win32,60,,,left,0.67565,,,,,,,,,0,9,9,4,1,,,,,,,,,,,,,,,,
,,,,,,,stim/VC_08.wav,5fd954357541e7448e28d079,2021-01-20_22h38.57.803,English_step1,2020.2.3,Win32,60,,,right,0.56703,,,,,,,,,0,10,10,7,1,,,,,,,,,,,,,,,,
,,,,,,,stim/VC_11.wav,5fd954357541e7448e28d079,2021-01-20_22h38.57.803,English_step1,2020.2.3,Win32,60,,,right,0.51265,,,,,,,,,1,0,11,10,1,,,,,,,,,,,,,,,,
,,,,,,,stim/VC_05.wav,5fd954357541e7448e28d079,2021-01-20_22h38.57.803,English_step1,2020.2.3,Win32,60,,,right,1.101845,,,,,,,,,1,1,12,4,1,,,,,,,,,,,,,,,,
,,,,,,,stim/VC_02.wav,5fd954357541e7448e28d079,2021-01-20_22h38.57.803,English_step1,2020.2.3,Win32,60,,,left,0.62187,,,,,,,,,1,2,13,1,1,,,,,,,,,,,,,,,,
,,,,,,,stim/VC_10.wav,5fd954357541e7448e28d079,2021-01-20_22h38.57.803,English_step1,2020.2.3,Win32,60,,,right,0.674595,,,,,,,,,1,3,14,9,1,,,,,,,,,,,,,,,,
,,,,,,,stim/VC_08.wav,5fd954357541e7448e28d079,2021-01-20_22h38.57.803,English_step1,2020.2.3,Win32,60,,,right,0.696045,,,,,,,,,1,4,15,7,1,,,,,,,,,,,,,,,,
,,,,,,,stim/VC_03.wav,5fd954357541e7448e28d079,2021-01-20_22h38.57.803,English_step1,2020.2.3,Win32,60,,,left,0.807025,,,,,,,,,1,5,16,2,1,,,,,,,,,,,,,,,,
,,,,,,,stim/VC_01.wav,5fd954357541e7448e28d079,2021-01-20_22h38.57.803,English_step1,2020.2.3,Win32,60,,,left,0.810465,,,,,,,,,1,6,17,0,1,,,,,,,,,,,,,,,,
,,,,,,,stim/VC_06.wav,5fd954357541e7448e28d079,2021-01-20_22h38.57.803,English_step1,2020.2.3,Win32,60,,,left,0.707155,,,,,,,,,1,7,18,5,1,,,,,,,,,,,,,,,,
,,,,,,,stim/VC_09.wav,5fd954357541e7448e28d079,2021-01-20_22h38.57.803,English_step1,2020.2.3,Win32,60,,,right,0.707525,,,,,,,,,1,8,19,8,1,,,,,,,,,,,,,,,,
,,,,,,,stim/VC_07.wav,5fd954357541e7448e28d079,2021-01-20_22h38.57.803,English_step1,2020.2.3,Win32,60,,,right,1.031985,,,,,,,,,1,9,20,6,1,,,,,,,,,,,,,,,,
,,,,,,,stim/VC_04.wav,5fd954357541e7448e28d079,2021-01-20_22h38.57.803,English_step1,2020.2.3,Win32,60,,,left,1.344885,,,,,,,,,1,10,21,3,1,,,,,,,,,,,,,,,,
,,,,,,,stim2/pa+05.wav,5fd954357541e7448e28d079,2021-01-20_22h38.57.803,English_step1,2020.2.3,Win32,60,,,,,,,,,,,,,,,,,,right,5.343895,0,0,0,0,1,,,,,,,,,
,,,,,,,stim2/pa-15.wav,5fd954357541e7448e28d079,2021-01-20_22h38.57.803,English_step1,2020.2.3,Win32,60,,,,,,,,,,,,,,,,,,right,1.156205,0,1,1,12,1,,,,,,,,,
,,,,,,,stim2/pa+40.wav,5fd954357541e7448e28d079,2021-01-20_22h38.57.803,English_step1,2020.2.3,Win32,60,,,,,,,,,,,,,,,,,,left,4.877155,0,2,2,7,1,,,,,,,,,
,,,,,,,stim2/pa+10.wav,5fd954357541e7448e28d079,2021-01-20_22h38.57.803,English_step1,2020.2.3,Win32,60,,,,,,,,,,,,,,,,,,left,0.69799,0,3,3,1,1,,,,,,,,,
,,,,,,,stim2/pa-05.wav,5fd954357541e7448e28d079,2021-01-20_22h38.57.803,English_step1,2020.2.3,Win32,60,,,,,,,,,,,,,,,,,,left,0.559405,0,4,4,10,1,,,,,,,,,
,,,,,,,stim2/pa-10.wav,5fd954357541e7448e28d079,2021-01-20_22h38.57.803,English_step1,2020.2.3,Win32,60,,,,,,,,,,,,,,,,,,left,0.584925,0,5,5,11,1,,,,,,,,,
,,,,,,,stim2/pa+20.wav,5fd954357541e7448e28d079,2021-01-20_22h38.57.803,English_step1,2020.2.3,Win32,60,,,,,,,,,,,,,,,,,,left,0.545275,0,6,6,3,1,,,,,,,,,
,,,,,,,stim2/pa-35.wav,5fd954357541e7448e28d079,2021-01-20_22h38.57.803,English_step1,2020.2.3,Win32,60,,,,,,,,,,,,,,,,,,left,0.687075,0,7,7,16,1,,,,,,,,,
,,,,,,,stim2/pa+30.wav,5fd954357541e7448e28d079,2021-01-20_22h38.57.803,English_step1,2020.2.3,Win32,60,,,,,,,,,,,,,,,,,,left,0.689375,0,8,8,5,1,,,,,,,,,
,,,,,,,stim2/pa+35.wav,5fd954357541e7448e28d079,2021-01-20_22h38.57.803,English_step1,2020.2.3,Win32,60,,,,,,,,,,,,,,,,,,left,0.73884,0,9,9,6,1,,,,,,,,,
,,,,,,,stim2/pa-30.wav,5fd954357541e7448e28d079,2021-01-20_22h38.57.803,English_step1,2020.2.3,Win32,60,,,,,,,,,,,,,,,,,,left,5.641465,0,10,10,15,1,,,,,,,,,
,,,,,,,stim2/pa+50.wav,5fd954357541e7448e28d079,2021-01-20_22h38.57.803,English_step1,2020.2.3,Win32,60,,,,,,,,,,,,,,,,,,left,0.59877,0,11,11,9,1,,,,,,,,,
,,,,,,,stim2/pa-25.wav,5fd954357541e7448e28d079,2021-01-20_22h38.57.803,English_step1,2020.2.3,Win32,60,,,,,,,,,,,,,,,,,,left,0.57778,0,12,12,14,1,,,,,,,,,
,,,,,,,stim2/pa-20.wav,5fd954357541e7448e28d079,2021-01-20_22h38.57.803,English_step1,2020.2.3,Win32,60,,,,,,,,,,,,,,,,,,left,0.521015,0,13,13,13,1,,,,,,,,,
,,,,,,,stim2/pa+45.wav,5fd954357541e7448e28d079,2021-01-20_22h38.57.803,English_step1,2020.2.3,Win32,60,,,,,,,,,,,,,,,,,,left,0.71202,0,14,14,8,1,,,,,,,,,
,,,,,,,stim2/pa+15.wav,5fd954357541e7448e28d079,2021-01-20_22h38.57.803,English_step1,2020.2.3,Win32,60,,,,,,,,,,,,,,,,,,left,0.62062,0,15,15,2,1,,,,,,,,,
,,,,,,,stim2/pa+25.wav,5fd954357541e7448e28d079,2021-01-20_22h38.57.803,English_step1,2020.2.3,Win32,60,,,,,,,,,,,,,,,,,,left,0.64533,0,16,16,4,1,,,,,,,,,
,,,,,,,stim2/pa-15.wav,5fd954357541e7448e28d079,2021-01-20_22h38.57.803,English_step1,2020.2.3,Win32,60,,,,,,,,,,,,,,,,,,left,0.56241,1,0,17,12,1,,,,,,,,,
,,,,,,,stim2/pa-05.wav,5fd954357541e7448e28d079,2021-01-20_22h38.57.803,English_step1,2020.2.3,Win32,60,,,,,,,,,,,,,,,,,,left,0.68375,1,1,18,10,1,,,,,,,,,
,,,,,,,stim2/pa+25.wav,5fd954357541e7448e28d079,2021-01-20_22h38.57.803,English_step1,2020.2.3,Win32,60,,,,,,,,,,,,,,,,,,left,0.68634,1,2,19,4,1,,,,,,,,,
,,,,,,,stim2/pa+05.wav,5fd954357541e7448e28d079,2021-01-20_22h38.57.803,English_step1,2020.2.3,Win32,60,,,,,,,,,,,,,,,,,,left,0.731815,1,3,20,0,1,,,,,,,,,
,,,,,,,stim2/pa+50.wav,5fd954357541e7448e28d079,2021-01-20_22h38.57.803,English_step1,2020.2.3,Win32,60,,,,,,,,,,,,,,,,,,left,0.744455,1,4,21,9,1,,,,,,,,,
,,,,,,,stim2/pa+15.wav,5fd954357541e7448e28d079,2021-01-20_22h38.57.803,English_step1,2020.2.3,Win32,60,,,,,,,,,,,,,,,,,,left,0.74504,1,5,22,2,1,,,,,,,,,
,,,,,,,stim2/pa-30.wav,5fd954357541e7448e28d079,2021-01-20_22h38.57.803,English_step1,2020.2.3,Win32,60,,,,,,,,,,,,,,,,,,left,0.788275,1,6,23,15,1,,,,,,,,,
,,,,,,,stim2/pa+30.wav,5fd954357541e7448e28d079,2021-01-20_22h38.57.803,English_step1,2020.2.3,Win32,60,,,,,,,,,,,,,,,,,,left,0.858785,1,7,24,5,1,,,,,,,,,
,,,,,,,stim2/pa+40.wav,5fd954357541e7448e28d079,2021-01-20_22h38.57.803,English_step1,2020.2.3,Win32,60,,,,,,,,,,,,,,,,,,left,0.717085,1,8,25,7,1,,,,,,,,,
,,,,,,,stim2/pa+45.wav,5fd954357541e7448e28d079,2021-01-20_22h38.57.803,English_step1,2020.2.3,Win32,60,,,,,,,,,,,,,,,,,,left,0.60409,1,9,26,8,1,,,,,,,,,
,,,,,,,stim2/pa+35.wav,5fd954357541e7448e28d079,2021-01-20_22h38.57.803,English_step1,2020.2.3,Win32,60,,,,,,,,,,,,,,,,,,left,0.515765,1,10,27,6,1,,,,,,,,,
,,,,,,,stim2/pa-35.wav,5fd954357541e7448e28d079,2021-01-20_22h38.57.803,English_step1,2020.2.3,Win32,60,,,,,,,,,,,,,,,,,,left,0.4006,1,11,28,16,1,,,,,,,,,
,,,,,,,stim2/pa+10.wav,5fd954357541e7448e28d079,2021-01-20_22h38.57.803,English_step1,2020.2.3,Win32,60,,,,,,,,,,,,,,,,,,left,0.85262,1,12,29,1,1,,,,,,,,,
,,,,,,,stim2/pa-20.wav,5fd954357541e7448e28d079,2021-01-20_22h38.57.803,English_step1,2020.2.3,Win32,60,,,,,,,,,,,,,,,,,,left,0.694535,1,13,30,13,1,,,,,,,,,
,,,,,,,stim2/pa+20.wav,5fd954357541e7448e28d079,2021-01-20_22h38.57.803,English_step1,2020.2.3,Win32,60,,,,,,,,,,,,,,,,,,left,0.58385,1,14,31,3,1,,,,,,,,,
,,,,,,,stim2/pa-25.wav,5fd954357541e7448e28d079,2021-01-20_22h38.57.803,English_step1,2020.2.3,Win32,60,,,,,,,,,,,,,,,,,,left,1.038785,1,15,32,14,1,,,,,,,,,
,,,,,,,stim2/pa-10.wav,5fd954357541e7448e28d079,2021-01-20_22h38.57.803,English_step1,2020.2.3,Win32,60,,,,,,,,,,,,,,,,,,left,0.881275,1,16,33,11,1,,,,,,,,,
,,,,,,,stim2/pa+30.wav,5fd954357541e7448e28d079,2021-01-20_22h38.57.803,English_step1,2020.2.3,Win32,60,,,,,,,,,,,,,,,,,,left,0.804525,2,0,34,5,1,,,,,,,,,
,,,,,,,stim2/pa+20.wav,5fd954357541e7448e28d079,2021-01-20_22h38.57.803,English_step1,2020.2.3,Win32,60,,,,,,,,,,,,,,,,,,left,0.68028,2,1,35,3,1,,,,,,,,,
,,,,,,,stim2/pa+45.wav,5fd954357541e7448e28d079,2021-01-20_22h38.57.803,English_step1,2020.2.3,Win32,60,,,,,,,,,,,,,,,,,,left,1.094685,2,2,36,8,1,,,,,,,,,
,,,,,,,stim2/pa-20.wav,5fd954357541e7448e28d079,2021-01-20_22h38.57.803,English_step1,2020.2.3,Win32,60,,,,,,,,,,,,,,,,,,left,0.87178,2,3,37,13,1,,,,,,,,,
,,,,,,,stim2/pa+25.wav,5fd954357541e7448e28d079,2021-01-20_22h38.57.803,English_step1,2020.2.3,Win32,60,,,,,,,,,,,,,,,,,,left,0.829215,2,4,38,4,1,,,,,,,,,
,,,,,,,stim2/pa+05.wav,5fd954357541e7448e28d079,2021-01-20_22h38.57.803,English_step1,2020.2.3,Win32,60,,,,,,,,,,,,,,,,,,left,0.769875,2,5,39,0,1,,,,,,,,,
,,,,,,,stim2/pa-35.wav,5fd954357541e7448e28d079,2021-01-20_22h38.57.803,English_step1,2020.2.3,Win32,60,,,,,,,,,,,,,,,,,,left,0.798395,2,6,40,16,1,,,,,,,,,
,,,,,,,stim2/pa+35.wav,5fd954357541e7448e28d079,2021-01-20_22h38.57.803,English_step1,2020.2.3,Win32,60,,,,,,,,,,,,,,,,,,left,0.72474,2,7,41,6,1,,,,,,,,,
,,,,,,,stim2/pa-15.wav,5fd954357541e7448e28d079,2021-01-20_22h38.57.803,English_step1,2020.2.3,Win32,60,,,,,,,,,,,,,,,,,,left,0.785605,2,8,42,12,1,,,,,,,,,
,,,,,,,stim2/pa-05.wav,5fd954357541e7448e28d079,2021-01-20_22h38.57.803,English_step1,2020.2.3,Win32,60,,,,,,,,,,,,,,,,,,left,0.724135,2,9,43,10,1,,,,,,,,,
,,,,,,,stim2/pa+40.wav,5fd954357541e7448e28d079,2021-01-20_22h38.57.803,English_step1,2020.2.3,Win32,60,,,,,,,,,,,,,,,,,,left,0.708205,2,10,44,7,1,,,,,,,,,
,,,,,,,stim2/pa-25.wav,5fd954357541e7448e28d079,2021-01-20_22h38.57.803,English_step1,2020.2.3,Win32,60,,,,,,,,,,,,,,,,,,left,0.736405,2,11,45,14,1,,,,,,,,,
,,,,,,,stim2/pa+15.wav,5fd954357541e7448e28d079,2021-01-20_22h38.57.803,English_step1,2020.2.3,Win32,60,,,,,,,,,,,,,,,,,,left,0.97721,2,12,46,2,1,,,,,,,,,
,,,,,,,stim2/pa+50.wav,5fd954357541e7448e28d079,2021-01-20_22h38.57.803,English_step1,2020.2.3,Win32,60,,,,,,,,,,,,,,,,,,left,0.621855,2,13,47,9,1,,,,,,,,,
,,,,,,,stim2/pa-30.wav,5fd954357541e7448e28d079,2021-01-20_22h38.57.803,English_step1,2020.2.3,Win32,60,,,,,,,,,,,,,,,,,,left,0.61967,2,14,48,15,1,,,,,,,,,
,,,,,,,stim2/pa+10.wav,5fd954357541e7448e28d079,2021-01-20_22h38.57.803,English_step1,2020.2.3,Win32,60,,,,,,,,,,,,,,,,,,left,0.451085,2,15,49,1,1,,,,,,,,,
,,,,,,,stim2/pa-10.wav,5fd954357541e7448e28d079,2021-01-20_22h38.57.803,English_step1,2020.2.3,Win32,60,,,,,,,,,,,,,,,,,,left,0.68899,2,16,50,11,1,,,,,,,,,
,,,,,,,stim2/pa-20.wav,5fd954357541e7448e28d079,2021-01-20_22h38.57.803,English_step1,2020.2.3,Win32,60,,,,,,,,,,,,,,,,,,left,0.88606,,,,,,q,4.889555,0,0,0,13,1,,
,,,,,,,stim2/pa+50.wav,5fd954357541e7448e28d079,2021-01-20_22h38.57.803,English_step1,2020.2.3,Win32,60,,,,,,,,,,,,,,,,,,left,0.71685,,,,,,,,0,1,1,9,1,,
,,,,,,,stim2/pa+40.wav,5fd954357541e7448e28d079,2021-01-20_22h38.57.803,English_step1,2020.2.3,Win32,60,,,,,,,,,,,,,,,,,,left,3.68103,,,,,,,,0,2,2,7,1,,
,,,,,,,stim2/pa+30.wav,5fd954357541e7448e28d079,2021-01-20_22h38.57.803,English_step1,2020.2.3,Win32,60,,,,,,,,,,,,,,,,,,left,0.84424,,,,,,,,0,3,3,5,1,,
,,,,,,,stim2/pa-10.wav,5fd954357541e7448e28d079,2021-01-20_22h38.57.803,English_step1,2020.2.3,Win32,60,,,,,,,,,,,,,,,,,,left,0.961855,,,,,,,,0,4,4,11,1,,
,,,,,,,stim2/pa+45.wav,5fd954357541e7448e28d079,2021-01-20_22h38.57.803,English_step1,2020.2.3,Win32,60,,,,,,,,,,,,,,,,,,left,0.826465,,,,,,,,0,5,5,8,1,,
,,,,,,,stim2/pa-25.wav,5fd954357541e7448e28d079,2021-01-20_22h38.57.803,English_step1,2020.2.3,Win32,60,,,,,,,,,,,,,,,,,,left,0.81524,,,,,,,,0,6,6,14,1,,
,,,,,,,stim2/pa-30.wav,5fd954357541e7448e28d079,2021-01-20_22h38.57.803,English_step1,2020.2.3,Win32,60,,,,,,,,,,,,,,,,,,left,0.829325,,,,,,,,0,7,7,15,1,,
,,,,,,,stim2/pa-35.wav,5fd954357541e7448e28d079,2021-01-20_22h38.57.803,English_step1,2020.2.3,Win32,60,,,,,,,,,,,,,,,,,,left,0.787045,,,,,,,,0,8,8,16,1,,
,,,,,,,stim2/pa-05.wav,5fd954357541e7448e28d079,2021-01-20_22h38.57.803,English_step1,2020.2.3,Win32,60,,,,,,,,,,,,,,,,,,left,0.69364,,,,,,,,0,9,9,10,1,,
,,,,,,,stim2/pa+20.wav,5fd954357541e7448e28d079,2021-01-20_22h38.57.803,English_step1,2020.2.3,Win32,60,,,,,,,,,,,,,,,,,,left,0.59431,,,,,,,,0,10,10,3,1,,
,,,,,,,stim2/pa+05.wav,5fd954357541e7448e28d079,2021-01-20_22h38.57.803,English_step1,2020.2.3,Win32,60,,,,,,,,,,,,,,,,,,left,0.522015,,,,,,,,0,11,11,0,1,,
,,,,,,,stim2/pa-15.wav,5fd954357541e7448e28d079,2021-01-20_22h38.57.803,English_step1,2020.2.3,Win32,60,,,,,,,,,,,,,,,,,,left,0.32804,,,,,,,,0,12,12,12,1,,
,,,,,,,stim2/pa+25.wav,5fd954357541e7448e28d079,2021-01-20_22h38.57.803,English_step1,2020.2.3,Win32,60,,,,,,,,,,,,,,,,,,left,0.44927,,,,,,,,0,13,13,4,1,,
,,,,,,,stim2/pa+35.wav,5fd954357541e7448e28d079,2021-01-20_22h38.57.803,English_step1,2020.2.3,Win32,60,,,,,,,,,,,,,,,,,,left,0.287625,,,,,,,,0,14,14,6,1,,
,,,,,,,stim2/pa+10.wav,5fd954357541e7448e28d079,2021-01-20_22h38.57.803,English_step1,2020.2.3,Win32,60,,,,,,,,,,,,,,,,,,left,0.559865,,,,,,,,0,15,15,1,1,,
,,,,,,,stim2/pa+15.wav,5fd954357541e7448e28d079,2021-01-20_22h38.57.803,English_step1,2020.2.3,Win32,60,,,,,,,,,,,,,,,,,,left,0.50275,,,,,,,,0,16,16,2,1,,
,,,,,,,stim2/pa+05.wav,5fd954357541e7448e28d079,2021-01-20_22h38.57.803,English_step1,2020.2.3,Win32,60,,,,,,,,,,,,,,,,,,left,0.423805,,,,,,,,1,0,17,0,1,,
,,,,,,,stim2/pa+45.wav,5fd954357541e7448e28d079,2021-01-20_22h38.57.803,English_step1,2020.2.3,Win32,60,,,,,,,,,,,,,,,,,,left,0.48126,,,,,,,,1,1,18,8,1,,
,,,,,,,stim2/pa-25.wav,5fd954357541e7448e28d079,2021-01-20_22h38.57.803,English_step1,2020.2.3,Win32,60,,,,,,,,,,,,,,,,,,left,0.484795,,,,,,,,1,2,19,14,1,,
,,,,,,,stim2/pa-20.wav,5fd954357541e7448e28d079,2021-01-20_22h38.57.803,English_step1,2020.2.3,Win32,60,,,,,,,,,,,,,,,,,,left,0.41899,,,,,,,,1,3,20,13,1,,
,,,,,,,stim2/pa+20.wav,5fd954357541e7448e28d079,2021-01-20_22h38.57.803,English_step1,2020.2.3,Win32,60,,,,,,,,,,,,,,,,,,left,0.480315,,,,,,,,1,4,21,3,1,,
,,,,,,,stim2/pa+35.wav,5fd954357541e7448e28d079,2021-01-20_22h38.57.803,English_step1,2020.2.3,Win32,60,,,,,,,,,,,,,,,,,,left,0.522145,,,,,,,,1,5,22,6,1,,
,,,,,,,stim2/pa-05.wav,5fd954357541e7448e28d079,2021-01-20_22h38.57.803,English_step1,2020.2.3,Win32,60,,,,,,,,,,,,,,,,,,left,0.61937,,,,,,,,1,6,23,10,1,,
,,,,,,,stim2/pa-15.wav,5fd954357541e7448e28d079,2021-01-20_22h38.57.803,English_step1,2020.2.3,Win32,60,,,,,,,,,,,,,,,,,,left,1.912405,,,,,,,,1,7,24,12,1,,
,,,,,,,stim2/pa+50.wav,5fd954357541e7448e28d079,2021-01-20_22h38.57.803,English_step1,2020.2.3,Win32,60,,,,,,,,,,,,,,,,,,left,0.714785,,,,,,,,1,8,25,9,1,,
,,,,,,,stim2/pa+40.wav,5fd954357541e7448e28d079,2021-01-20_22h38.57.803,English_step1,2020.2.3,Win32,60,,,,,,,,,,,,,,,,,,left,0.776735,,,,,,,,1,9,26,7,1,,
,,,,,,,stim2/pa+25.wav,5fd954357541e7448e28d079,2021-01-20_22h38.57.803,English_step1,2020.2.3,Win32,60,,,,,,,,,,,,,,,,,,left,0.64371,,,,,,,,1,10,27,4,1,,
,,,,,,,stim2/pa-35.wav,5fd954357541e7448e28d079,2021-01-20_22h38.57.803,English_step1,2020.2.3,Win32,60,,,,,,,,,,,,,,,,,,right,0.98095,,,,,,,,1,11,28,16,1,,
,,,,,,,stim2/pa+15.wav,5fd954357541e7448e28d079,2021-01-20_22h38.57.803,English_step1,2020.2.3,Win32,60,,,,,,,,,,,,,,,,,,left,0.88305,,,,,,,,1,12,29,2,1,,
,,,,,,,stim2/pa-10.wav,5fd954357541e7448e28d079,2021-01-20_22h38.57.803,English_step1,2020.2.3,Win32,60,,,,,,,,,,,,,,,,,,right,0.67053,,,,,,,,1,13,30,11,1,,
,,,,,,,stim2/pa-30.wav,5fd954357541e7448e28d079,2021-01-20_22h38.57.803,English_step1,2020.2.3,Win32,60,,,,,,,,,,,,,,,,,,left,0.42408,,,,,,,,1,14,31,15,1,,
,,,,,,,stim2/pa+10.wav,5fd954357541e7448e28d079,2021-01-20_22h38.57.803,English_step1,2020.2.3,Win32,60,,,,,,,,,,,,,,,,,,left,0.653115,,,,,,,,1,15,32,1,1,,
,,,,,,,stim2/pa+30.wav,5fd954357541e7448e28d079,2021-01-20_22h38.57.803,English_step1,2020.2.3,Win32,60,,,,,,,,,,,,,,,,,,left,0.554335,,,,,,,,1,16,33,5,1,,
,,,,,,,,5fd954357541e7448e28d079,2021-01-20_22h38.57.803,English_step1,2020.2.3,Win32,60,,,,,,,,,,,,,,,,,,,,,,,,,,,,,,,,space,18.60944
