lextale_instructions_loop.thisRepN,lextale_instructions_loop.thisTrialN,lextale_instructions_loop.thisN,lextale_instructions_loop.thisIndex,lextale_instructions_loop.ran,instructions_text,continue_text,participant,session,date,expName,psychopyVersion,OS,frameRate,key_resp_lextale_practice.keys,key_resp_lextale_practice.corr,key_resp_lextale_practice.rt,lextale_practice_trials.thisRepN,lextale_practice_trials.thisTrialN,lextale_practice_trials.thisN,lextale_practice_trials.thisIndex,lextale_practice_trials.ran,stim,word,correct_response,prac_button_real,prac_button_false,key_resp_lextale_trial.keys,key_resp_lextale_trial.corr,key_resp_lextale_trial.rt,lextail_trials.thisRepN,lextail_trials.thisTrialN,lextail_trials.thisN,lextail_trials.thisIndex,lextail_trials.ran,button_real,button_false
0,0,0,0,1,"Este es un test de vocabulario en español. 
  
  A continuación vas a ver 90 secuencias de letras que parecen 'españolas'.
  
  Solo algunas de ellas son palabras de verdad.",(presiona la barra espaciadora para continuar),5b0d7e4a1e55760001b98442,001,2020-12-14_10h44.04.197,lextale_sp,2020.2.3,Win32,60,,,,,,,,,,,,,,,,,,,,,,,
0,1,1,1,1,"Por favor, señala las palabras que tú conoces (aquellas que estás convencido que son palabras españolas, incluso aunque no seas capaz de dar el significado preciso).",(presiona la barra espaciadora para continuar),5b0d7e4a1e55760001b98442,001,2020-12-14_10h44.04.197,lextale_sp,2020.2.3,Win32,60,,,,,,,,,,,,,,,,,,,,,,,
0,2,2,2,1,Pero cuidado: los errores se penalizan. Por eso no tiene sentido tratar de incrementar tu puntuación marcando como reales palabras que nunca has visto.,(presiona la barra espaciadora para continuar),5b0d7e4a1e55760001b98442,001,2020-12-14_10h44.04.197,lextale_sp,2020.2.3,Win32,60,,,,,,,,,,,,,,,,,,,,,,,
0,3,3,3,1,"Presiona la tecla 1 si piensas que es una palabra real y la tecla 
  0 si piensas que es una palabra falsa. 
  
  Vamos a practicar un poco...",(presiona la barra espaciadora para continuar),5b0d7e4a1e55760001b98442,001,2020-12-14_10h44.04.197,lextale_sp,2020.2.3,Win32,60,,,,,,,,,,,,,,,,,,,,,,,
,,,,,,,5b0d7e4a1e55760001b98442,001,2020-12-14_10h44.04.197,lextale_sp,2020.2.3,Win32,60,1,0,0.672,0,0,0,0,1,0,depiste,0,REAL,FALSA,,,,,,,,,,
,,,,,,,5b0d7e4a1e55760001b98442,001,2020-12-14_10h44.04.197,lextale_sp,2020.2.3,Win32,60,1,1,1.231,0,1,1,1,1,0,sí,1,REAL,FALSA,,,,,,,,,,
,,,,,,,5b0d7e4a1e55760001b98442,001,2020-12-14_10h44.04.197,lextale_sp,2020.2.3,Win32,60,0,1,1.355,0,2,2,2,1,0,coné,0,REAL,FALSA,,,,,,,,,,
,,,,,,,5b0d7e4a1e55760001b98442,001,2020-12-14_10h44.04.197,lextale_sp,2020.2.3,Win32,60,1,0,1.817,0,3,3,3,1,0,calpar,0,REAL,FALSA,,,,,,,,,,
,,,,,,,5b0d7e4a1e55760001b98442,001,2020-12-14_10h44.04.197,lextale_sp,2020.2.3,Win32,60,0,1,1.259,0,4,4,4,1,0,joten,0,REAL,FALSA,,,,,,,,,,
,,,,,,,5b0d7e4a1e55760001b98442,001,2020-12-14_10h44.04.197,lextale_sp,2020.2.3,Win32,60,1,1,1.566,0,5,5,5,1,0,sacapuntas,1,REAL,FALSA,,,,,,,,,,
,,,,,,,5b0d7e4a1e55760001b98442,001,2020-12-14_10h44.04.197,lextale_sp,2020.2.3,Win32,60,0,1,1.385,0,6,6,6,1,0,priba,0,REAL,FALSA,,,,,,,,,,
,,,,,,,5b0d7e4a1e55760001b98442,001,2020-12-14_10h44.04.197,lextale_sp,2020.2.3,Win32,60,0,1,2.8,0,7,7,7,1,0,pelasula,0,REAL,FALSA,,,,,,,,,,
,,,,,,,5b0d7e4a1e55760001b98442,001,2020-12-14_10h44.04.197,lextale_sp,2020.2.3,Win32,60,1,1,0.636,0,8,8,8,1,0,bien,1,REAL,FALSA,,,,,,,,,,
,,,,,,,5b0d7e4a1e55760001b98442,001,2020-12-14_10h44.04.197,lextale_sp,2020.2.3,Win32,60,1,1,0.673,0,9,9,9,1,0,casa,1,REAL,FALSA,,,,,,,,,,
,,,,,,,5b0d7e4a1e55760001b98442,001,2020-12-14_10h44.04.197,lextale_sp,2020.2.3,Win32,60,1,0,0.82,0,10,10,10,1,0,lejo,0,REAL,FALSA,,,,,,,,,,
,,,,,,,5b0d7e4a1e55760001b98442,001,2020-12-14_10h44.04.197,lextale_sp,2020.2.3,Win32,60,0,1,1.833,0,11,11,11,1,0,pretantas,0,REAL,FALSA,,,,,,,,,,
,,,,,,,5b0d7e4a1e55760001b98442,001,2020-12-14_10h44.04.197,lextale_sp,2020.2.3,Win32,60,,,,,,,,,11,cenefa,1,,,0,0,2.116,0,0,0,10,1,REAL,FALSA
,,,,,,,5b0d7e4a1e55760001b98442,001,2020-12-14_10h44.04.197,lextale_sp,2020.2.3,Win32,60,,,,,,,,,19,brecedad,0,,,0,1,2.833,0,1,1,18,1,REAL,FALSA
,,,,,,,5b0d7e4a1e55760001b98442,001,2020-12-14_10h44.04.197,lextale_sp,2020.2.3,Win32,60,,,,,,,,,53,vegada,0,,,0,1,1.282,0,2,2,52,1,REAL,FALSA
,,,,,,,5b0d7e4a1e55760001b98442,001,2020-12-14_10h44.04.197,lextale_sp,2020.2.3,Win32,60,,,,,,,,,85,laúd,1,,,0,0,1.382,0,3,3,84,1,REAL,FALSA
,,,,,,,5b0d7e4a1e55760001b98442,001,2020-12-14_10h44.04.197,lextale_sp,2020.2.3,Win32,60,,,,,,,,,83,guante,1,,,1,1,1.533,0,4,4,82,1,REAL,FALSA
,,,,,,,5b0d7e4a1e55760001b98442,001,2020-12-14_10h44.04.197,lextale_sp,2020.2.3,Win32,60,,,,,,,,,52,camisa,1,,,1,1,0.902,0,5,5,51,1,REAL,FALSA
,,,,,,,5b0d7e4a1e55760001b98442,001,2020-12-14_10h44.04.197,lextale_sp,2020.2.3,Win32,60,,,,,,,,,78,frondoso,1,,,0,0,2.2,0,6,6,77,1,REAL,FALSA
,,,,,,,5b0d7e4a1e55760001b98442,001,2020-12-14_10h44.04.197,lextale_sp,2020.2.3,Win32,60,,,,,,,,,66,hacido,0,,,1,0,1.3,0,7,7,65,1,REAL,FALSA
,,,,,,,5b0d7e4a1e55760001b98442,001,2020-12-14_10h44.04.197,lextale_sp,2020.2.3,Win32,60,,,,,,,,,90,clavel,1,,,0,0,1.633,0,8,8,89,1,REAL,FALSA
,,,,,,,5b0d7e4a1e55760001b98442,001,2020-12-14_10h44.04.197,lextale_sp,2020.2.3,Win32,60,,,,,,,,,10,antar,0,,,0,1,2.119,0,9,9,9,1,REAL,FALSA
,,,,,,,5b0d7e4a1e55760001b98442,001,2020-12-14_10h44.04.197,lextale_sp,2020.2.3,Win32,60,,,,,,,,,45,jilguero,1,,,1,1,2.367,0,10,10,44,1,REAL,FALSA
,,,,,,,5b0d7e4a1e55760001b98442,001,2020-12-14_10h44.04.197,lextale_sp,2020.2.3,Win32,60,,,,,,,,,73,hervidor,1,,,1,1,1.394,0,11,11,72,1,REAL,FALSA
,,,,,,,5b0d7e4a1e55760001b98442,001,2020-12-14_10h44.04.197,lextale_sp,2020.2.3,Win32,60,,,,,,,,,26,secuestro,1,,,1,1,1.299,0,12,12,25,1,REAL,FALSA
,,,,,,,5b0d7e4a1e55760001b98442,001,2020-12-14_10h44.04.197,lextale_sp,2020.2.3,Win32,60,,,,,,,,,56,musgo,1,,,0,0,0.833,0,13,13,55,1,REAL,FALSA
,,,,,,,5b0d7e4a1e55760001b98442,001,2020-12-14_10h44.04.197,lextale_sp,2020.2.3,Win32,60,,,,,,,,,34,aviso,1,,,1,1,0.884,0,14,14,33,1,REAL,FALSA
,,,,,,,5b0d7e4a1e55760001b98442,001,2020-12-14_10h44.04.197,lextale_sp,2020.2.3,Win32,60,,,,,,,,,21,capillo,0,,,1,0,1.282,0,15,15,20,1,REAL,FALSA
,,,,,,,5b0d7e4a1e55760001b98442,001,2020-12-14_10h44.04.197,lextale_sp,2020.2.3,Win32,60,,,,,,,,,43,canela,1,,,0,0,1.085,0,16,16,42,1,REAL,FALSA
,,,,,,,5b0d7e4a1e55760001b98442,001,2020-12-14_10h44.04.197,lextale_sp,2020.2.3,Win32,60,,,,,,,,,54,fomentar,1,,,0,0,1.9,0,17,17,53,1,REAL,FALSA
,,,,,,,5b0d7e4a1e55760001b98442,001,2020-12-14_10h44.04.197,lextale_sp,2020.2.3,Win32,60,,,,,,,,,60,matar,1,,,1,1,0.948,0,18,18,59,1,REAL,FALSA
,,,,,,,5b0d7e4a1e55760001b98442,001,2020-12-14_10h44.04.197,lextale_sp,2020.2.3,Win32,60,,,,,,,,,22,lacayo,1,,,0,0,1.207,0,19,19,21,1,REAL,FALSA
,,,,,,,5b0d7e4a1e55760001b98442,001,2020-12-14_10h44.04.197,lextale_sp,2020.2.3,Win32,60,,,,,,,,,2,pellizcar,1,,,0,0,2.474,0,20,20,1,1,REAL,FALSA
,,,,,,,5b0d7e4a1e55760001b98442,001,2020-12-14_10h44.04.197,lextale_sp,2020.2.3,Win32,60,,,,,,,,,68,alegre,1,,,1,1,0.857,0,21,21,67,1,REAL,FALSA
,,,,,,,5b0d7e4a1e55760001b98442,001,2020-12-14_10h44.04.197,lextale_sp,2020.2.3,Win32,60,,,,,,,,,86,barato,1,,,1,1,0.941,0,22,22,85,1,REAL,FALSA
,,,,,,,5b0d7e4a1e55760001b98442,001,2020-12-14_10h44.04.197,lextale_sp,2020.2.3,Win32,60,,,,,,,,,61,seda,1,,,0,0,1.449,0,23,23,60,1,REAL,FALSA
,,,,,,,5b0d7e4a1e55760001b98442,001,2020-12-14_10h44.04.197,lextale_sp,2020.2.3,Win32,60,,,,,,,,,46,martillo,1,,,0,0,2.272,0,24,24,45,1,REAL,FALSA
,,,,,,,5b0d7e4a1e55760001b98442,001,2020-12-14_10h44.04.197,lextale_sp,2020.2.3,Win32,60,,,,,,,,,13,helar,1,,,0,0,2.555,0,25,25,12,1,REAL,FALSA
,,,,,,,5b0d7e4a1e55760001b98442,001,2020-12-14_10h44.04.197,lextale_sp,2020.2.3,Win32,60,,,,,,,,,5,zapato,1,,,1,1,0.741,0,26,26,4,1,REAL,FALSA
,,,,,,,5b0d7e4a1e55760001b98442,001,2020-12-14_10h44.04.197,lextale_sp,2020.2.3,Win32,60,,,,,,,,,39,torpe,1,,,0,0,0.982,0,27,27,38,1,REAL,FALSA
,,,,,,,5b0d7e4a1e55760001b98442,001,2020-12-14_10h44.04.197,lextale_sp,2020.2.3,Win32,60,,,,,,,,,89,prisa,1,,,1,1,0.908,0,28,28,88,1,REAL,FALSA
,,,,,,,5b0d7e4a1e55760001b98442,001,2020-12-14_10h44.04.197,lextale_sp,2020.2.3,Win32,60,,,,,,,,,71,polvoriento,1,,,0,0,2.075,0,29,29,70,1,REAL,FALSA
,,,,,,,5b0d7e4a1e55760001b98442,001,2020-12-14_10h44.04.197,lextale_sp,2020.2.3,Win32,60,,,,,,,,,38,estornudar,1,,,0,0,2.367,0,30,30,37,1,REAL,FALSA
,,,,,,,5b0d7e4a1e55760001b98442,001,2020-12-14_10h44.04.197,lextale_sp,2020.2.3,Win32,60,,,,,,,,,17,floroso,0,,,0,1,1.083,0,31,31,16,1,REAL,FALSA
,,,,,,,5b0d7e4a1e55760001b98442,001,2020-12-14_10h44.04.197,lextale_sp,2020.2.3,Win32,60,,,,,,,,,67,cabello,1,,,1,1,0.789,0,32,32,66,1,REAL,FALSA
,,,,,,,5b0d7e4a1e55760001b98442,001,2020-12-14_10h44.04.197,lextale_sp,2020.2.3,Win32,60,,,,,,,,,80,hormiga,1,,,1,1,1.083,0,33,33,79,1,REAL,FALSA
,,,,,,,5b0d7e4a1e55760001b98442,001,2020-12-14_10h44.04.197,lextale_sp,2020.2.3,Win32,60,,,,,,,,,35,rompido,0,,,0,1,2.685,0,34,34,34,1,REAL,FALSA
,,,,,,,5b0d7e4a1e55760001b98442,001,2020-12-14_10h44.04.197,lextale_sp,2020.2.3,Win32,60,,,,,,,,,41,rebuscar,1,,,1,1,1.298,0,35,35,40,1,REAL,FALSA
,,,,,,,5b0d7e4a1e55760001b98442,001,2020-12-14_10h44.04.197,lextale_sp,2020.2.3,Win32,60,,,,,,,,,12,asesinato,1,,,1,1,2.266,0,36,36,11,1,REAL,FALSA
,,,,,,,5b0d7e4a1e55760001b98442,001,2020-12-14_10h44.04.197,lextale_sp,2020.2.3,Win32,60,,,,,,,,,8,cadeña,0,,,1,0,1.449,0,37,37,7,1,REAL,FALSA
,,,,,,,5b0d7e4a1e55760001b98442,001,2020-12-14_10h44.04.197,lextale_sp,2020.2.3,Win32,60,,,,,,,,,29,decar,0,,,0,1,2.183,0,38,38,28,1,REAL,FALSA
,,,,,,,5b0d7e4a1e55760001b98442,001,2020-12-14_10h44.04.197,lextale_sp,2020.2.3,Win32,60,,,,,,,,,88,acantilado,1,,,0,0,1.682,0,39,39,87,1,REAL,FALSA
,,,,,,,5b0d7e4a1e55760001b98442,001,2020-12-14_10h44.04.197,lextale_sp,2020.2.3,Win32,60,,,,,,,,,55,nevar,1,,,1,1,1.155,0,40,40,54,1,REAL,FALSA
,,,,,,,5b0d7e4a1e55760001b98442,001,2020-12-14_10h44.04.197,lextale_sp,2020.2.3,Win32,60,,,,,,,,,58,plaudir,0,,,0,1,1.134,0,41,41,57,1,REAL,FALSA
,,,,,,,5b0d7e4a1e55760001b98442,001,2020-12-14_10h44.04.197,lextale_sp,2020.2.3,Win32,60,,,,,,,,,36,loro,1,,,1,1,2.467,0,42,42,35,1,REAL,FALSA
,,,,,,,5b0d7e4a1e55760001b98442,001,2020-12-14_10h44.04.197,lextale_sp,2020.2.3,Win32,60,,,,,,,,,49,ganar,1,,,1,1,0.783,0,43,43,48,1,REAL,FALSA
,,,,,,,5b0d7e4a1e55760001b98442,001,2020-12-14_10h44.04.197,lextale_sp,2020.2.3,Win32,60,,,,,,,,,63,esposante,0,,,0,1,1.849,0,44,44,62,1,REAL,FALSA
,,,,,,,5b0d7e4a1e55760001b98442,001,2020-12-14_10h44.04.197,lextale_sp,2020.2.3,Win32,60,,,,,,,,,6,tergiversar,1,,,0,0,1.869,0,45,45,5,1,REAL,FALSA
,,,,,,,5b0d7e4a1e55760001b98442,001,2020-12-14_10h44.04.197,lextale_sp,2020.2.3,Win32,60,,,,,,,,,81,pozo,1,,,0,0,3.249,0,46,46,80,1,REAL,FALSA
,,,,,,,5b0d7e4a1e55760001b98442,001,2020-12-14_10h44.04.197,lextale_sp,2020.2.3,Win32,60,,,,,,,,,62,flaco,1,,,1,1,0.933,0,47,47,61,1,REAL,FALSA
,,,,,,,5b0d7e4a1e55760001b98442,001,2020-12-14_10h44.04.197,lextale_sp,2020.2.3,Win32,60,,,,,,,,,32,fatacidad,0,,,0,1,2.349,0,48,48,31,1,REAL,FALSA
,,,,,,,5b0d7e4a1e55760001b98442,001,2020-12-14_10h44.04.197,lextale_sp,2020.2.3,Win32,60,,,,,,,,,18,arsa,0,,,0,1,1.151,0,49,49,17,1,REAL,FALSA
,,,,,,,5b0d7e4a1e55760001b98442,001,2020-12-14_10h44.04.197,lextale_sp,2020.2.3,Win32,60,,,,,,,,,69,engatusar,1,,,0,0,3.317,0,50,50,68,1,REAL,FALSA
,,,,,,,5b0d7e4a1e55760001b98442,001,2020-12-14_10h44.04.197,lextale_sp,2020.2.3,Win32,60,,,,,,,,,20,ávido,1,,,1,1,0.932,0,51,51,19,1,REAL,FALSA
,,,,,,,5b0d7e4a1e55760001b98442,001,2020-12-14_10h44.04.197,lextale_sp,2020.2.3,Win32,60,,,,,,,,,79,tropaje,0,,,0,1,2.167,0,52,52,78,1,REAL,FALSA
,,,,,,,5b0d7e4a1e55760001b98442,001,2020-12-14_10h44.04.197,lextale_sp,2020.2.3,Win32,60,,,,,,,,,51,candado,1,,,1,1,1.215,0,53,53,50,1,REAL,FALSA
,,,,,,,5b0d7e4a1e55760001b98442,001,2020-12-14_10h44.04.197,lextale_sp,2020.2.3,Win32,60,,,,,,,,,3,pulmones,1,,,1,1,0.956,0,54,54,2,1,REAL,FALSA
,,,,,,,5b0d7e4a1e55760001b98442,001,2020-12-14_10h44.04.197,lextale_sp,2020.2.3,Win32,60,,,,,,,,,1,terzo,0,,,1,0,1.074,0,55,55,0,1,REAL,FALSA
,,,,,,,5b0d7e4a1e55760001b98442,001,2020-12-14_10h44.04.197,lextale_sp,2020.2.3,Win32,60,,,,,,,,,44,cuchara,1,,,1,1,2.767,0,56,56,43,1,REAL,FALSA
,,,,,,,5b0d7e4a1e55760001b98442,001,2020-12-14_10h44.04.197,lextale_sp,2020.2.3,Win32,60,,,,,,,,,77,tiburón,1,,,1,1,1.587,0,57,57,76,1,REAL,FALSA
,,,,,,,5b0d7e4a1e55760001b98442,001,2020-12-14_10h44.04.197,lextale_sp,2020.2.3,Win32,60,,,,,,,,,14,yunque,1,,,0,0,1.34,0,58,58,13,1,REAL,FALSA
,,,,,,,5b0d7e4a1e55760001b98442,001,2020-12-14_10h44.04.197,lextale_sp,2020.2.3,Win32,60,,,,,,,,,9,hacha,1,,,0,0,1.082,0,59,59,8,1,REAL,FALSA
,,,,,,,5b0d7e4a1e55760001b98442,001,2020-12-14_10h44.04.197,lextale_sp,2020.2.3,Win32,60,,,,,,,,,28,merodear,1,,,0,0,1.82,0,60,60,27,1,REAL,FALSA
,,,,,,,5b0d7e4a1e55760001b98442,001,2020-12-14_10h44.04.197,lextale_sp,2020.2.3,Win32,60,,,,,,,,,7,pésimo,1,,,1,1,1.084,0,61,61,6,1,REAL,FALSA
,,,,,,,5b0d7e4a1e55760001b98442,001,2020-12-14_10h44.04.197,lextale_sp,2020.2.3,Win32,60,,,,,,,,,40,alfombra,1,,,1,1,0.981,0,62,62,39,1,REAL,FALSA
,,,,,,,5b0d7e4a1e55760001b98442,001,2020-12-14_10h44.04.197,lextale_sp,2020.2.3,Win32,60,,,,,,,,,64,orgulloso,1,,,1,1,0.849,0,63,63,63,1,REAL,FALSA
,,,,,,,5b0d7e4a1e55760001b98442,001,2020-12-14_10h44.04.197,lextale_sp,2020.2.3,Win32,60,,,,,,,,,74,cintro,0,,,0,1,1.568,0,64,64,73,1,REAL,FALSA
,,,,,,,5b0d7e4a1e55760001b98442,001,2020-12-14_10h44.04.197,lextale_sp,2020.2.3,Win32,60,,,,,,,,,16,abracer,0,,,1,0,2.534,0,65,65,15,1,REAL,FALSA
,,,,,,,5b0d7e4a1e55760001b98442,001,2020-12-14_10h44.04.197,lextale_sp,2020.2.3,Win32,60,,,,,,,,,24,látigo,1,,,1,1,1.15,0,66,66,23,1,REAL,FALSA
,,,,,,,5b0d7e4a1e55760001b98442,001,2020-12-14_10h44.04.197,lextale_sp,2020.2.3,Win32,60,,,,,,,,,37,granuja,1,,,1,1,1.583,0,67,67,36,1,REAL,FALSA
,,,,,,,5b0d7e4a1e55760001b98442,001,2020-12-14_10h44.04.197,lextale_sp,2020.2.3,Win32,60,,,,,,,,,42,cadallo,0,,,0,1,0.931,0,68,68,41,1,REAL,FALSA
,,,,,,,5b0d7e4a1e55760001b98442,001,2020-12-14_10h44.04.197,lextale_sp,2020.2.3,Win32,60,,,,,,,,,23,lampera,0,,,0,1,3.049,0,69,69,22,1,REAL,FALSA
,,,,,,,5b0d7e4a1e55760001b98442,001,2020-12-14_10h44.04.197,lextale_sp,2020.2.3,Win32,60,,,,,,,,,31,pandilla,1,,,1,1,1.175,0,70,70,30,1,REAL,FALSA
,,,,,,,5b0d7e4a1e55760001b98442,001,2020-12-14_10h44.04.197,lextale_sp,2020.2.3,Win32,60,,,,,,,,,33,pauca,0,,,0,1,1.148,0,71,71,32,1,REAL,FALSA
,,,,,,,5b0d7e4a1e55760001b98442,001,2020-12-14_10h44.04.197,lextale_sp,2020.2.3,Win32,60,,,,,,,,,72,pemición,0,,,0,1,1.321,0,72,72,71,1,REAL,FALSA
,,,,,,,5b0d7e4a1e55760001b98442,001,2020-12-14_10h44.04.197,lextale_sp,2020.2.3,Win32,60,,,,,,,,,47,cartinar,0,,,0,1,1.166,0,73,73,46,1,REAL,FALSA
,,,,,,,5b0d7e4a1e55760001b98442,001,2020-12-14_10h44.04.197,lextale_sp,2020.2.3,Win32,60,,,,,,,,,25,bisagra,1,,,0,0,1.077,0,74,74,24,1,REAL,FALSA
,,,,,,,5b0d7e4a1e55760001b98442,001,2020-12-14_10h44.04.197,lextale_sp,2020.2.3,Win32,60,,,,,,,,,48,ladrón,1,,,1,1,0.676,0,75,75,47,1,REAL,FALSA
,,,,,,,5b0d7e4a1e55760001b98442,001,2020-12-14_10h44.04.197,lextale_sp,2020.2.3,Win32,60,,,,,,,,,84,escuto,0,,,1,0,2.188,0,76,76,83,1,REAL,FALSA
,,,,,,,5b0d7e4a1e55760001b98442,001,2020-12-14_10h44.04.197,lextale_sp,2020.2.3,Win32,60,,,,,,,,,87,grodo,0,,,0,1,1.689,0,77,77,86,1,REAL,FALSA
,,,,,,,5b0d7e4a1e55760001b98442,001,2020-12-14_10h44.04.197,lextale_sp,2020.2.3,Win32,60,,,,,,,,,30,alardio,0,,,0,1,1.705,0,78,78,29,1,REAL,FALSA
,,,,,,,5b0d7e4a1e55760001b98442,001,2020-12-14_10h44.04.197,lextale_sp,2020.2.3,Win32,60,,,,,,,,,76,atar,1,,,0,0,1.226,0,79,79,75,1,REAL,FALSA
,,,,,,,5b0d7e4a1e55760001b98442,001,2020-12-14_10h44.04.197,lextale_sp,2020.2.3,Win32,60,,,,,,,,,70,temblo,0,,,1,0,1.365,0,80,80,69,1,REAL,FALSA
,,,,,,,5b0d7e4a1e55760001b98442,001,2020-12-14_10h44.04.197,lextale_sp,2020.2.3,Win32,60,,,,,,,,,27,acutación,0,,,1,0,1.483,0,81,81,26,1,REAL,FALSA
,,,,,,,5b0d7e4a1e55760001b98442,001,2020-12-14_10h44.04.197,lextale_sp,2020.2.3,Win32,60,,,,,,,,,4,batillón,0,,,1,0,2.292,0,82,82,3,1,REAL,FALSA
,,,,,,,5b0d7e4a1e55760001b98442,001,2020-12-14_10h44.04.197,lextale_sp,2020.2.3,Win32,60,,,,,,,,,82,empirador,0,,,1,0,2.515,0,83,83,81,1,REAL,FALSA
,,,,,,,5b0d7e4a1e55760001b98442,001,2020-12-14_10h44.04.197,lextale_sp,2020.2.3,Win32,60,,,,,,,,,50,flamida,0,,,0,1,1.384,0,84,84,49,1,REAL,FALSA
,,,,,,,5b0d7e4a1e55760001b98442,001,2020-12-14_10h44.04.197,lextale_sp,2020.2.3,Win32,60,,,,,,,,,75,yacer,1,,,0,0,1.15,0,85,85,74,1,REAL,FALSA
,,,,,,,5b0d7e4a1e55760001b98442,001,2020-12-14_10h44.04.197,lextale_sp,2020.2.3,Win32,60,,,,,,,,,57,tacaño,1,,,0,0,1.907,0,86,86,56,1,REAL,FALSA
,,,,,,,5b0d7e4a1e55760001b98442,001,2020-12-14_10h44.04.197,lextale_sp,2020.2.3,Win32,60,,,,,,,,,65,bizcocho,1,,,1,1,1.268,0,87,87,64,1,REAL,FALSA
,,,,,,,5b0d7e4a1e55760001b98442,001,2020-12-14_10h44.04.197,lextale_sp,2020.2.3,Win32,60,,,,,,,,,59,besar,1,,,1,1,0.766,0,88,88,58,1,REAL,FALSA
,,,,,,,5b0d7e4a1e55760001b98442,001,2020-12-14_10h44.04.197,lextale_sp,2020.2.3,Win32,60,,,,,,,,,15,regar,1,,,0,0,1.124,0,89,89,14,1,REAL,FALSA
