lextale_instructions_loop.thisRepN,lextale_instructions_loop.thisTrialN,lextale_instructions_loop.thisN,lextale_instructions_loop.thisIndex,lextale_instructions_loop.ran,instructions_text,continue_text,participant,session,date,expName,psychopyVersion,OS,frameRate,key_resp_lextale_practice.keys,key_resp_lextale_practice.corr,key_resp_lextale_practice.rt,lextale_practice_trials.thisRepN,lextale_practice_trials.thisTrialN,lextale_practice_trials.thisN,lextale_practice_trials.thisIndex,lextale_practice_trials.ran,stim,word,correct_response,prac_button_real,prac_button_false,key_resp_lextale_trial.keys,key_resp_lextale_trial.corr,key_resp_lextale_trial.rt,lextail_trials.thisRepN,lextail_trials.thisTrialN,lextail_trials.thisN,lextail_trials.thisIndex,lextail_trials.ran,button_real,button_false
0,0,0,0,1,"Este es un test de vocabulario en español. 
  
  A continuación vas a ver 90 secuencias de letras que parecen 'españolas'.
  
  Solo algunas de ellas son palabras de verdad.",(presiona la barra espaciadora para continuar),5d44a1177e8a8b001920cfe4,001,2021-01-12_15h20.06.474,lextale_sp,2020.2.3,Win32,60,,,,,,,,,,,,,,,,,,,,,,,
0,1,1,1,1,"Por favor, señala las palabras que tú conoces (aquellas que estás convencido que son palabras españolas, incluso aunque no seas capaz de dar el significado preciso).",(presiona la barra espaciadora para continuar),5d44a1177e8a8b001920cfe4,001,2021-01-12_15h20.06.474,lextale_sp,2020.2.3,Win32,60,,,,,,,,,,,,,,,,,,,,,,,
0,2,2,2,1,Pero cuidado: los errores se penalizan. Por eso no tiene sentido tratar de incrementar tu puntuación marcando como reales palabras que nunca has visto.,(presiona la barra espaciadora para continuar),5d44a1177e8a8b001920cfe4,001,2021-01-12_15h20.06.474,lextale_sp,2020.2.3,Win32,60,,,,,,,,,,,,,,,,,,,,,,,
0,3,3,3,1,"Presiona la tecla 1 si piensas que es una palabra real y la tecla 
  0 si piensas que es una palabra falsa. 
  
  Vamos a practicar un poco...",(presiona la barra espaciadora para continuar),5d44a1177e8a8b001920cfe4,001,2021-01-12_15h20.06.474,lextale_sp,2020.2.3,Win32,60,,,,,,,,,,,,,,,,,,,,,,,
,,,,,,,5d44a1177e8a8b001920cfe4,001,2021-01-12_15h20.06.474,lextale_sp,2020.2.3,Win32,60,0,1,23.333935,0,0,0,0,1,0,depiste,0,REAL,FALSA,,,,,,,,,,
,,,,,,,5d44a1177e8a8b001920cfe4,001,2021-01-12_15h20.06.474,lextale_sp,2020.2.3,Win32,60,1,1,2.18937,0,1,1,1,1,0,sí,1,REAL,FALSA,,,,,,,,,,
,,,,,,,5d44a1177e8a8b001920cfe4,001,2021-01-12_15h20.06.474,lextale_sp,2020.2.3,Win32,60,0,1,11.91651,0,2,2,2,1,0,coné,0,REAL,FALSA,,,,,,,,,,
,,,,,,,5d44a1177e8a8b001920cfe4,001,2021-01-12_15h20.06.474,lextale_sp,2020.2.3,Win32,60,1,0,2.66968,0,3,3,3,1,0,calpar,0,REAL,FALSA,,,,,,,,,,
,,,,,,,5d44a1177e8a8b001920cfe4,001,2021-01-12_15h20.06.474,lextale_sp,2020.2.3,Win32,60,0,1,9.620365,0,4,4,4,1,0,joten,0,REAL,FALSA,,,,,,,,,,
,,,,,,,5d44a1177e8a8b001920cfe4,001,2021-01-12_15h20.06.474,lextale_sp,2020.2.3,Win32,60,1,1,1.936475,0,5,5,5,1,0,sacapuntas,1,REAL,FALSA,,,,,,,,,,
,,,,,,,5d44a1177e8a8b001920cfe4,001,2021-01-12_15h20.06.474,lextale_sp,2020.2.3,Win32,60,0,1,1.87422,0,6,6,6,1,0,priba,0,REAL,FALSA,,,,,,,,,,
,,,,,,,5d44a1177e8a8b001920cfe4,001,2021-01-12_15h20.06.474,lextale_sp,2020.2.3,Win32,60,1,0,16.63829,0,7,7,7,1,0,pelasula,0,REAL,FALSA,,,,,,,,,,
,,,,,,,5d44a1177e8a8b001920cfe4,001,2021-01-12_15h20.06.474,lextale_sp,2020.2.3,Win32,60,1,1,0.91794,0,8,8,8,1,0,bien,1,REAL,FALSA,,,,,,,,,,
,,,,,,,5d44a1177e8a8b001920cfe4,001,2021-01-12_15h20.06.474,lextale_sp,2020.2.3,Win32,60,1,1,0.756475,0,9,9,9,1,0,casa,1,REAL,FALSA,,,,,,,,,,
,,,,,,,5d44a1177e8a8b001920cfe4,001,2021-01-12_15h20.06.474,lextale_sp,2020.2.3,Win32,60,1,0,2.82289,0,10,10,10,1,0,lejo,0,REAL,FALSA,,,,,,,,,,
,,,,,,,5d44a1177e8a8b001920cfe4,001,2021-01-12_15h20.06.474,lextale_sp,2020.2.3,Win32,60,0,1,11.787685,0,11,11,11,1,0,pretantas,0,REAL,FALSA,,,,,,,,,,
,,,,,,,5d44a1177e8a8b001920cfe4,001,2021-01-12_15h20.06.474,lextale_sp,2020.2.3,Win32,60,,,,,,,,,60,matar,1,,,1,1,2.3017,0,0,0,59,1,REAL,FALSA
,,,,,,,5d44a1177e8a8b001920cfe4,001,2021-01-12_15h20.06.474,lextale_sp,2020.2.3,Win32,60,,,,,,,,,78,frondoso,1,,,1,1,14.519155,0,1,1,77,1,REAL,FALSA
,,,,,,,5d44a1177e8a8b001920cfe4,001,2021-01-12_15h20.06.474,lextale_sp,2020.2.3,Win32,60,,,,,,,,,28,merodear,1,,,1,1,14.351545,0,2,2,27,1,REAL,FALSA
,,,,,,,5d44a1177e8a8b001920cfe4,001,2021-01-12_15h20.06.474,lextale_sp,2020.2.3,Win32,60,,,,,,,,,31,pandilla,1,,,1,1,11.451535,0,3,3,30,1,REAL,FALSA
,,,,,,,5d44a1177e8a8b001920cfe4,001,2021-01-12_15h20.06.474,lextale_sp,2020.2.3,Win32,60,,,,,,,,,56,musgo,1,,,1,1,7.589065,0,4,4,55,1,REAL,FALSA
,,,,,,,5d44a1177e8a8b001920cfe4,001,2021-01-12_15h20.06.474,lextale_sp,2020.2.3,Win32,60,,,,,,,,,85,laúd,1,,,1,1,8.356335,0,5,5,84,1,REAL,FALSA
,,,,,,,5d44a1177e8a8b001920cfe4,001,2021-01-12_15h20.06.474,lextale_sp,2020.2.3,Win32,60,,,,,,,,,83,guante,1,,,1,1,1.685755,0,6,6,82,1,REAL,FALSA
,,,,,,,5d44a1177e8a8b001920cfe4,001,2021-01-12_15h20.06.474,lextale_sp,2020.2.3,Win32,60,,,,,,,,,74,cintro,0,,,0,1,8.3263,0,7,7,73,1,REAL,FALSA
,,,,,,,5d44a1177e8a8b001920cfe4,001,2021-01-12_15h20.06.474,lextale_sp,2020.2.3,Win32,60,,,,,,,,,27,acutación,0,,,1,0,2.541745,0,8,8,26,1,REAL,FALSA
,,,,,,,5d44a1177e8a8b001920cfe4,001,2021-01-12_15h20.06.474,lextale_sp,2020.2.3,Win32,60,,,,,,,,,61,seda,1,,,1,1,8.569085,0,9,9,60,1,REAL,FALSA
,,,,,,,5d44a1177e8a8b001920cfe4,001,2021-01-12_15h20.06.474,lextale_sp,2020.2.3,Win32,60,,,,,,,,,89,prisa,1,,,1,1,1.003485,0,10,10,88,1,REAL,FALSA
,,,,,,,5d44a1177e8a8b001920cfe4,001,2021-01-12_15h20.06.474,lextale_sp,2020.2.3,Win32,60,,,,,,,,,38,estornudar,1,,,1,1,14.79187,0,11,11,37,1,REAL,FALSA
,,,,,,,5d44a1177e8a8b001920cfe4,001,2021-01-12_15h20.06.474,lextale_sp,2020.2.3,Win32,60,,,,,,,,,57,tacaño,1,,,1,1,14.69276,0,12,12,56,1,REAL,FALSA
,,,,,,,5d44a1177e8a8b001920cfe4,001,2021-01-12_15h20.06.474,lextale_sp,2020.2.3,Win32,60,,,,,,,,,30,alardio,0,,,1,0,10.075495,0,13,13,29,1,REAL,FALSA
,,,,,,,5d44a1177e8a8b001920cfe4,001,2021-01-12_15h20.06.474,lextale_sp,2020.2.3,Win32,60,,,,,,,,,62,flaco,1,,,1,1,1.13411,0,14,14,61,1,REAL,FALSA
,,,,,,,5d44a1177e8a8b001920cfe4,001,2021-01-12_15h20.06.474,lextale_sp,2020.2.3,Win32,60,,,,,,,,,23,lampera,0,,,0,1,8.258355,0,15,15,22,1,REAL,FALSA
,,,,,,,5d44a1177e8a8b001920cfe4,001,2021-01-12_15h20.06.474,lextale_sp,2020.2.3,Win32,60,,,,,,,,,8,cadeña,0,,,1,0,15.422505,0,16,16,7,1,REAL,FALSA
,,,,,,,5d44a1177e8a8b001920cfe4,001,2021-01-12_15h20.06.474,lextale_sp,2020.2.3,Win32,60,,,,,,,,,44,cuchara,1,,,1,1,1.634495,0,17,17,43,1,REAL,FALSA
,,,,,,,5d44a1177e8a8b001920cfe4,001,2021-01-12_15h20.06.474,lextale_sp,2020.2.3,Win32,60,,,,,,,,,48,ladrón,1,,,1,1,1.120345,0,18,18,47,1,REAL,FALSA
,,,,,,,5d44a1177e8a8b001920cfe4,001,2021-01-12_15h20.06.474,lextale_sp,2020.2.3,Win32,60,,,,,,,,,47,cartinar,0,,,0,1,9.153025,0,19,19,46,1,REAL,FALSA
,,,,,,,5d44a1177e8a8b001920cfe4,001,2021-01-12_15h20.06.474,lextale_sp,2020.2.3,Win32,60,,,,,,,,,12,asesinato,1,,,1,1,12.35263,0,20,20,11,1,REAL,FALSA
,,,,,,,5d44a1177e8a8b001920cfe4,001,2021-01-12_15h20.06.474,lextale_sp,2020.2.3,Win32,60,,,,,,,,,86,barato,1,,,1,1,1.46811,0,21,21,85,1,REAL,FALSA
,,,,,,,5d44a1177e8a8b001920cfe4,001,2021-01-12_15h20.06.474,lextale_sp,2020.2.3,Win32,60,,,,,,,,,26,secuestro,1,,,1,1,8.054365,0,22,22,25,1,REAL,FALSA
,,,,,,,5d44a1177e8a8b001920cfe4,001,2021-01-12_15h20.06.474,lextale_sp,2020.2.3,Win32,60,,,,,,,,,52,camisa,1,,,1,1,1.051185,0,23,23,51,1,REAL,FALSA
,,,,,,,5d44a1177e8a8b001920cfe4,001,2021-01-12_15h20.06.474,lextale_sp,2020.2.3,Win32,60,,,,,,,,,45,jilguero,1,,,1,1,12.65205,0,24,24,44,1,REAL,FALSA
,,,,,,,5d44a1177e8a8b001920cfe4,001,2021-01-12_15h20.06.474,lextale_sp,2020.2.3,Win32,60,,,,,,,,,4,batillón,0,,,0,1,9.80318,0,25,25,3,1,REAL,FALSA
,,,,,,,5d44a1177e8a8b001920cfe4,001,2021-01-12_15h20.06.474,lextale_sp,2020.2.3,Win32,60,,,,,,,,,25,bisagra,1,,,1,1,7.700425,0,26,26,24,1,REAL,FALSA
,,,,,,,5d44a1177e8a8b001920cfe4,001,2021-01-12_15h20.06.474,lextale_sp,2020.2.3,Win32,60,,,,,,,,,73,hervidor,1,,,1,1,7.928595,0,27,27,72,1,REAL,FALSA
,,,,,,,5d44a1177e8a8b001920cfe4,001,2021-01-12_15h20.06.474,lextale_sp,2020.2.3,Win32,60,,,,,,,,,69,engatusar,1,,,0,0,15.39072,0,28,28,68,1,REAL,FALSA
,,,,,,,5d44a1177e8a8b001920cfe4,001,2021-01-12_15h20.06.474,lextale_sp,2020.2.3,Win32,60,,,,,,,,,76,atar,1,,,1,1,8.68173,0,29,29,75,1,REAL,FALSA
,,,,,,,5d44a1177e8a8b001920cfe4,001,2021-01-12_15h20.06.474,lextale_sp,2020.2.3,Win32,60,,,,,,,,,90,clavel,1,,,1,1,6.46049,0,30,30,89,1,REAL,FALSA
,,,,,,,5d44a1177e8a8b001920cfe4,001,2021-01-12_15h20.06.474,lextale_sp,2020.2.3,Win32,60,,,,,,,,,53,vegada,0,,,0,1,8.547735,0,31,31,52,1,REAL,FALSA
,,,,,,,5d44a1177e8a8b001920cfe4,001,2021-01-12_15h20.06.474,lextale_sp,2020.2.3,Win32,60,,,,,,,,,87,grodo,0,,,0,1,6.74958,0,32,32,86,1,REAL,FALSA
,,,,,,,5d44a1177e8a8b001920cfe4,001,2021-01-12_15h20.06.474,lextale_sp,2020.2.3,Win32,60,,,,,,,,,3,pulmones,1,,,1,1,1.60008,0,33,33,2,1,REAL,FALSA
,,,,,,,5d44a1177e8a8b001920cfe4,001,2021-01-12_15h20.06.474,lextale_sp,2020.2.3,Win32,60,,,,,,,,,6,tergiversar,1,,,1,1,18.583325,0,34,34,5,1,REAL,FALSA
,,,,,,,5d44a1177e8a8b001920cfe4,001,2021-01-12_15h20.06.474,lextale_sp,2020.2.3,Win32,60,,,,,,,,,51,candado,1,,,1,1,9.98302,0,35,35,50,1,REAL,FALSA
,,,,,,,5d44a1177e8a8b001920cfe4,001,2021-01-12_15h20.06.474,lextale_sp,2020.2.3,Win32,60,,,,,,,,,17,floroso,0,,,1,0,1.563135,0,36,36,16,1,REAL,FALSA
,,,,,,,5d44a1177e8a8b001920cfe4,001,2021-01-12_15h20.06.474,lextale_sp,2020.2.3,Win32,60,,,,,,,,,9,hacha,1,,,1,1,7.346805,0,37,37,8,1,REAL,FALSA
,,,,,,,5d44a1177e8a8b001920cfe4,001,2021-01-12_15h20.06.474,lextale_sp,2020.2.3,Win32,60,,,,,,,,,50,flamida,0,,,1,0,7.06263,0,38,38,49,1,REAL,FALSA
,,,,,,,5d44a1177e8a8b001920cfe4,001,2021-01-12_15h20.06.474,lextale_sp,2020.2.3,Win32,60,,,,,,,,,36,loro,1,,,1,1,0.914385,0,39,39,35,1,REAL,FALSA
,,,,,,,5d44a1177e8a8b001920cfe4,001,2021-01-12_15h20.06.474,lextale_sp,2020.2.3,Win32,60,,,,,,,,,10,antar,0,,,0,1,6.54529,0,40,40,9,1,REAL,FALSA
,,,,,,,5d44a1177e8a8b001920cfe4,001,2021-01-12_15h20.06.474,lextale_sp,2020.2.3,Win32,60,,,,,,,,,66,hacido,0,,,1,0,1.771295,0,41,41,65,1,REAL,FALSA
,,,,,,,5d44a1177e8a8b001920cfe4,001,2021-01-12_15h20.06.474,lextale_sp,2020.2.3,Win32,60,,,,,,,,,5,zapato,1,,,1,1,5.663225,0,42,42,4,1,REAL,FALSA
,,,,,,,5d44a1177e8a8b001920cfe4,001,2021-01-12_15h20.06.474,lextale_sp,2020.2.3,Win32,60,,,,,,,,,13,helar,1,,,1,1,1.81209,0,43,43,12,1,REAL,FALSA
,,,,,,,5d44a1177e8a8b001920cfe4,001,2021-01-12_15h20.06.474,lextale_sp,2020.2.3,Win32,60,,,,,,,,,32,fatacidad,0,,,1,0,11.046075,0,44,44,31,1,REAL,FALSA
,,,,,,,5d44a1177e8a8b001920cfe4,001,2021-01-12_15h20.06.474,lextale_sp,2020.2.3,Win32,60,,,,,,,,,34,aviso,1,,,1,1,0.966825,0,45,45,33,1,REAL,FALSA
,,,,,,,5d44a1177e8a8b001920cfe4,001,2021-01-12_15h20.06.474,lextale_sp,2020.2.3,Win32,60,,,,,,,,,55,nevar,1,,,1,1,6.63928,0,46,46,54,1,REAL,FALSA
,,,,,,,5d44a1177e8a8b001920cfe4,001,2021-01-12_15h20.06.474,lextale_sp,2020.2.3,Win32,60,,,,,,,,,21,capillo,0,,,1,0,1.07995,0,47,47,20,1,REAL,FALSA
,,,,,,,5d44a1177e8a8b001920cfe4,001,2021-01-12_15h20.06.474,lextale_sp,2020.2.3,Win32,60,,,,,,,,,82,empirador,0,,,1,0,1.39834,0,48,48,81,1,REAL,FALSA
,,,,,,,5d44a1177e8a8b001920cfe4,001,2021-01-12_15h20.06.474,lextale_sp,2020.2.3,Win32,60,,,,,,,,,64,orgulloso,1,,,1,1,1.263935,0,49,49,63,1,REAL,FALSA
,,,,,,,5d44a1177e8a8b001920cfe4,001,2021-01-12_15h20.06.474,lextale_sp,2020.2.3,Win32,60,,,,,,,,,77,tiburón,1,,,1,1,0.93272,0,50,50,76,1,REAL,FALSA
,,,,,,,5d44a1177e8a8b001920cfe4,001,2021-01-12_15h20.06.474,lextale_sp,2020.2.3,Win32,60,,,,,,,,,67,cabello,1,,,1,1,0.78114,0,51,51,66,1,REAL,FALSA
,,,,,,,5d44a1177e8a8b001920cfe4,001,2021-01-12_15h20.06.474,lextale_sp,2020.2.3,Win32,60,,,,,,,,,81,pozo,1,,,1,1,1.416005,0,52,52,80,1,REAL,FALSA
,,,,,,,5d44a1177e8a8b001920cfe4,001,2021-01-12_15h20.06.474,lextale_sp,2020.2.3,Win32,60,,,,,,,,,70,temblo,0,,,1,0,6.40029,0,53,53,69,1,REAL,FALSA
,,,,,,,5d44a1177e8a8b001920cfe4,001,2021-01-12_15h20.06.474,lextale_sp,2020.2.3,Win32,60,,,,,,,,,75,yacer,1,,,1,1,7.995495,0,54,54,74,1,REAL,FALSA
,,,,,,,5d44a1177e8a8b001920cfe4,001,2021-01-12_15h20.06.474,lextale_sp,2020.2.3,Win32,60,,,,,,,,,7,pésimo,1,,,1,1,10.6467,0,55,55,6,1,REAL,FALSA
,,,,,,,5d44a1177e8a8b001920cfe4,001,2021-01-12_15h20.06.474,lextale_sp,2020.2.3,Win32,60,,,,,,,,,59,besar,1,,,1,1,2.368285,0,56,56,58,1,REAL,FALSA
,,,,,,,5d44a1177e8a8b001920cfe4,001,2021-01-12_15h20.06.474,lextale_sp,2020.2.3,Win32,60,,,,,,,,,14,yunque,1,,,1,1,11.846655,0,57,57,13,1,REAL,FALSA
,,,,,,,5d44a1177e8a8b001920cfe4,001,2021-01-12_15h20.06.474,lextale_sp,2020.2.3,Win32,60,,,,,,,,,35,rompido,0,,,1,0,1.114605,0,58,58,34,1,REAL,FALSA
,,,,,,,5d44a1177e8a8b001920cfe4,001,2021-01-12_15h20.06.474,lextale_sp,2020.2.3,Win32,60,,,,,,,,,49,ganar,1,,,1,1,0.76427,0,59,59,48,1,REAL,FALSA
,,,,,,,5d44a1177e8a8b001920cfe4,001,2021-01-12_15h20.06.474,lextale_sp,2020.2.3,Win32,60,,,,,,,,,16,abracer,0,,,1,0,1.06608,0,60,60,15,1,REAL,FALSA
,,,,,,,5d44a1177e8a8b001920cfe4,001,2021-01-12_15h20.06.474,lextale_sp,2020.2.3,Win32,60,,,,,,,,,11,cenefa,1,,,1,1,9.01575,0,61,61,10,1,REAL,FALSA
,,,,,,,5d44a1177e8a8b001920cfe4,001,2021-01-12_15h20.06.474,lextale_sp,2020.2.3,Win32,60,,,,,,,,,88,acantilado,1,,,1,1,9.179995,0,62,62,87,1,REAL,FALSA
,,,,,,,5d44a1177e8a8b001920cfe4,001,2021-01-12_15h20.06.474,lextale_sp,2020.2.3,Win32,60,,,,,,,,,54,fomentar,1,,,1,1,17.86109,0,63,63,53,1,REAL,FALSA
,,,,,,,5d44a1177e8a8b001920cfe4,001,2021-01-12_15h20.06.474,lextale_sp,2020.2.3,Win32,60,,,,,,,,,65,bizcocho,1,,,1,1,1.164,0,64,64,64,1,REAL,FALSA
,,,,,,,5d44a1177e8a8b001920cfe4,001,2021-01-12_15h20.06.474,lextale_sp,2020.2.3,Win32,60,,,,,,,,,80,hormiga,1,,,1,1,1.253285,0,65,65,79,1,REAL,FALSA
,,,,,,,5d44a1177e8a8b001920cfe4,001,2021-01-12_15h20.06.474,lextale_sp,2020.2.3,Win32,60,,,,,,,,,15,regar,1,,,1,1,1.46812,0,66,66,14,1,REAL,FALSA
,,,,,,,5d44a1177e8a8b001920cfe4,001,2021-01-12_15h20.06.474,lextale_sp,2020.2.3,Win32,60,,,,,,,,,72,pemición,0,,,1,0,12.58359,0,67,67,71,1,REAL,FALSA
,,,,,,,5d44a1177e8a8b001920cfe4,001,2021-01-12_15h20.06.474,lextale_sp,2020.2.3,Win32,60,,,,,,,,,22,lacayo,1,,,1,1,6.886165,0,68,68,21,1,REAL,FALSA
,,,,,,,5d44a1177e8a8b001920cfe4,001,2021-01-12_15h20.06.474,lextale_sp,2020.2.3,Win32,60,,,,,,,,,37,granuja,1,,,1,1,7.63753,0,69,69,36,1,REAL,FALSA
,,,,,,,5d44a1177e8a8b001920cfe4,001,2021-01-12_15h20.06.474,lextale_sp,2020.2.3,Win32,60,,,,,,,,,39,torpe,1,,,1,1,1.10379,0,70,70,38,1,REAL,FALSA
,,,,,,,5d44a1177e8a8b001920cfe4,001,2021-01-12_15h20.06.474,lextale_sp,2020.2.3,Win32,60,,,,,,,,,63,esposante,0,,,1,0,17.169405,0,71,71,62,1,REAL,FALSA
,,,,,,,5d44a1177e8a8b001920cfe4,001,2021-01-12_15h20.06.474,lextale_sp,2020.2.3,Win32,60,,,,,,,,,71,polvoriento,1,,,1,1,16.744655,0,72,72,70,1,REAL,FALSA
,,,,,,,5d44a1177e8a8b001920cfe4,001,2021-01-12_15h20.06.474,lextale_sp,2020.2.3,Win32,60,,,,,,,,,19,brecedad,0,,,1,0,12.956545,0,73,73,18,1,REAL,FALSA
,,,,,,,5d44a1177e8a8b001920cfe4,001,2021-01-12_15h20.06.474,lextale_sp,2020.2.3,Win32,60,,,,,,,,,46,martillo,1,,,1,1,1.77993,0,74,74,45,1,REAL,FALSA
,,,,,,,5d44a1177e8a8b001920cfe4,001,2021-01-12_15h20.06.474,lextale_sp,2020.2.3,Win32,60,,,,,,,,,33,pauca,0,,,0,1,7.41854,0,75,75,32,1,REAL,FALSA
,,,,,,,5d44a1177e8a8b001920cfe4,001,2021-01-12_15h20.06.474,lextale_sp,2020.2.3,Win32,60,,,,,,,,,84,escuto,0,,,0,1,11.01608,0,76,76,83,1,REAL,FALSA
,,,,,,,5d44a1177e8a8b001920cfe4,001,2021-01-12_15h20.06.474,lextale_sp,2020.2.3,Win32,60,,,,,,,,,43,canela,1,,,1,1,1.37135,0,77,77,42,1,REAL,FALSA
,,,,,,,5d44a1177e8a8b001920cfe4,001,2021-01-12_15h20.06.474,lextale_sp,2020.2.3,Win32,60,,,,,,,,,42,cadallo,0,,,0,1,15.915465,0,78,78,41,1,REAL,FALSA
,,,,,,,5d44a1177e8a8b001920cfe4,001,2021-01-12_15h20.06.474,lextale_sp,2020.2.3,Win32,60,,,,,,,,,41,rebuscar,1,,,1,1,1.41593,0,79,79,40,1,REAL,FALSA
,,,,,,,5d44a1177e8a8b001920cfe4,001,2021-01-12_15h20.06.474,lextale_sp,2020.2.3,Win32,60,,,,,,,,,29,decar,0,,,1,0,1.05265,0,80,80,28,1,REAL,FALSA
,,,,,,,5d44a1177e8a8b001920cfe4,001,2021-01-12_15h20.06.474,lextale_sp,2020.2.3,Win32,60,,,,,,,,,58,plaudir,0,,,1,0,1.301935,0,81,81,57,1,REAL,FALSA
,,,,,,,5d44a1177e8a8b001920cfe4,001,2021-01-12_15h20.06.474,lextale_sp,2020.2.3,Win32,60,,,,,,,,,20,ávido,1,,,1,1,1.24585,0,82,82,19,1,REAL,FALSA
,,,,,,,5d44a1177e8a8b001920cfe4,001,2021-01-12_15h20.06.474,lextale_sp,2020.2.3,Win32,60,,,,,,,,,2,pellizcar,1,,,1,1,12.27065,0,83,83,1,1,REAL,FALSA
,,,,,,,5d44a1177e8a8b001920cfe4,001,2021-01-12_15h20.06.474,lextale_sp,2020.2.3,Win32,60,,,,,,,,,79,tropaje,0,,,1,0,8.516855,0,84,84,78,1,REAL,FALSA
,,,,,,,5d44a1177e8a8b001920cfe4,001,2021-01-12_15h20.06.474,lextale_sp,2020.2.3,Win32,60,,,,,,,,,24,látigo,1,,,1,1,12.564275,0,85,85,23,1,REAL,FALSA
,,,,,,,5d44a1177e8a8b001920cfe4,001,2021-01-12_15h20.06.474,lextale_sp,2020.2.3,Win32,60,,,,,,,,,68,alegre,1,,,1,1,0.883195,0,86,86,67,1,REAL,FALSA
,,,,,,,5d44a1177e8a8b001920cfe4,001,2021-01-12_15h20.06.474,lextale_sp,2020.2.3,Win32,60,,,,,,,,,40,alfombra,1,,,1,1,0.854205,0,87,87,39,1,REAL,FALSA
,,,,,,,5d44a1177e8a8b001920cfe4,001,2021-01-12_15h20.06.474,lextale_sp,2020.2.3,Win32,60,,,,,,,,,1,terzo,0,,,1,0,1.482045,0,88,88,0,1,REAL,FALSA
,,,,,,,5d44a1177e8a8b001920cfe4,001,2021-01-12_15h20.06.474,lextale_sp,2020.2.3,Win32,60,,,,,,,,,18,arsa,0,,,0,1,6.29989,0,89,89,17,1,REAL,FALSA
