lextale_instructions_loop.thisRepN,lextale_instructions_loop.thisTrialN,lextale_instructions_loop.thisN,lextale_instructions_loop.thisIndex,lextale_instructions_loop.ran,instructions_text,continue_text,participant,session,date,expName,psychopyVersion,OS,frameRate,key_resp_lextale_practice.keys,key_resp_lextale_practice.corr,key_resp_lextale_practice.rt,lextale_practice_trials.thisRepN,lextale_practice_trials.thisTrialN,lextale_practice_trials.thisN,lextale_practice_trials.thisIndex,lextale_practice_trials.ran,stim,word,correct_response,prac_button_real,prac_button_false,key_resp_lextale_trial.keys,key_resp_lextale_trial.corr,key_resp_lextale_trial.rt,lextail_trials.thisRepN,lextail_trials.thisTrialN,lextail_trials.thisN,lextail_trials.thisIndex,lextail_trials.ran,button_real,button_false
0,0,0,0,1,"Este es un test de vocabulario en español. 
  
  A continuación vas a ver 90 secuencias de letras que parecen 'españolas'.
  
  Solo algunas de ellas son palabras de verdad.",(presiona la barra espaciadora para continuar), 5e64ce85ef80c6245d49dee8,001,2020-10-27_18h41.55.146,lextale_sp,2020.2.3,Win32,60,,,,,,,,,,,,,,,,,,,,,,,
0,1,1,1,1,"Por favor, señala las palabras que tú conoces (aquellas que estás convencido que son palabras españolas, incluso aunque no seas capaz de dar el significado preciso).",(presiona la barra espaciadora para continuar), 5e64ce85ef80c6245d49dee8,001,2020-10-27_18h41.55.146,lextale_sp,2020.2.3,Win32,60,,,,,,,,,,,,,,,,,,,,,,,
0,2,2,2,1,Pero cuidado: los errores se penalizan. Por eso no tiene sentido tratar de incrementar tu puntuación marcando como reales palabras que nunca has visto.,(presiona la barra espaciadora para continuar), 5e64ce85ef80c6245d49dee8,001,2020-10-27_18h41.55.146,lextale_sp,2020.2.3,Win32,60,,,,,,,,,,,,,,,,,,,,,,,
0,3,3,3,1,"Presiona la tecla 1 si piensas que es una palabra real y la tecla 
  0 si piensas que es una palabra falsa. 
  
  Vamos a practicar un poco...",(presiona la barra espaciadora para continuar), 5e64ce85ef80c6245d49dee8,001,2020-10-27_18h41.55.146,lextale_sp,2020.2.3,Win32,60,,,,,,,,,,,,,,,,,,,,,,,
,,,,,,, 5e64ce85ef80c6245d49dee8,001,2020-10-27_18h41.55.146,lextale_sp,2020.2.3,Win32,60,1,0,1.96769,0,0,0,0,1,0,depiste,0,REAL,FALSA,,,,,,,,,,
,,,,,,, 5e64ce85ef80c6245d49dee8,001,2020-10-27_18h41.55.146,lextale_sp,2020.2.3,Win32,60,1,1,1.46049,0,1,1,1,1,0,sí,1,REAL,FALSA,,,,,,,,,,
,,,,,,, 5e64ce85ef80c6245d49dee8,001,2020-10-27_18h41.55.146,lextale_sp,2020.2.3,Win32,60,0,1,1.21851,0,2,2,2,1,0,coné,0,REAL,FALSA,,,,,,,,,,
,,,,,,, 5e64ce85ef80c6245d49dee8,001,2020-10-27_18h41.55.146,lextale_sp,2020.2.3,Win32,60,0,1,1.546125,0,3,3,3,1,0,calpar,0,REAL,FALSA,,,,,,,,,,
,,,,,,, 5e64ce85ef80c6245d49dee8,001,2020-10-27_18h41.55.146,lextale_sp,2020.2.3,Win32,60,0,1,0.69422,0,4,4,4,1,0,joten,0,REAL,FALSA,,,,,,,,,,
,,,,,,, 5e64ce85ef80c6245d49dee8,001,2020-10-27_18h41.55.146,lextale_sp,2020.2.3,Win32,60,1,1,0.69025,0,5,5,5,1,0,sacapuntas,1,REAL,FALSA,,,,,,,,,,
,,,,,,, 5e64ce85ef80c6245d49dee8,001,2020-10-27_18h41.55.146,lextale_sp,2020.2.3,Win32,60,0,1,1.03741,0,6,6,6,1,0,priba,0,REAL,FALSA,,,,,,,,,,
,,,,,,, 5e64ce85ef80c6245d49dee8,001,2020-10-27_18h41.55.146,lextale_sp,2020.2.3,Win32,60,0,1,2.10122,0,7,7,7,1,0,pelasula,0,REAL,FALSA,,,,,,,,,,
,,,,,,, 5e64ce85ef80c6245d49dee8,001,2020-10-27_18h41.55.146,lextale_sp,2020.2.3,Win32,60,1,1,0.62151,0,8,8,8,1,0,bien,1,REAL,FALSA,,,,,,,,,,
,,,,,,, 5e64ce85ef80c6245d49dee8,001,2020-10-27_18h41.55.146,lextale_sp,2020.2.3,Win32,60,1,1,0.81629,0,9,9,9,1,0,casa,1,REAL,FALSA,,,,,,,,,,
,,,,,,, 5e64ce85ef80c6245d49dee8,001,2020-10-27_18h41.55.146,lextale_sp,2020.2.3,Win32,60,0,1,0.904455,0,10,10,10,1,0,lejo,0,REAL,FALSA,,,,,,,,,,
,,,,,,, 5e64ce85ef80c6245d49dee8,001,2020-10-27_18h41.55.146,lextale_sp,2020.2.3,Win32,60,0,1,1.186725,0,11,11,11,1,0,pretantas,0,REAL,FALSA,,,,,,,,,,
,,,,,,, 5e64ce85ef80c6245d49dee8,001,2020-10-27_18h41.55.146,lextale_sp,2020.2.3,Win32,60,,,,,,,,,3,pulmones,1,,,1,1,0.90174,0,0,0,2,1,REAL,FALSA
,,,,,,, 5e64ce85ef80c6245d49dee8,001,2020-10-27_18h41.55.146,lextale_sp,2020.2.3,Win32,60,,,,,,,,,67,cabello,1,,,1,1,0.60561,0,1,1,66,1,REAL,FALSA
,,,,,,, 5e64ce85ef80c6245d49dee8,001,2020-10-27_18h41.55.146,lextale_sp,2020.2.3,Win32,60,,,,,,,,,83,guante,1,,,1,1,0.58289,0,2,2,82,1,REAL,FALSA
,,,,,,, 5e64ce85ef80c6245d49dee8,001,2020-10-27_18h41.55.146,lextale_sp,2020.2.3,Win32,60,,,,,,,,,56,musgo,1,,,1,1,0.740705,0,3,3,55,1,REAL,FALSA
,,,,,,, 5e64ce85ef80c6245d49dee8,001,2020-10-27_18h41.55.146,lextale_sp,2020.2.3,Win32,60,,,,,,,,,23,lampera,0,,,0,1,0.885245,0,4,4,22,1,REAL,FALSA
,,,,,,, 5e64ce85ef80c6245d49dee8,001,2020-10-27_18h41.55.146,lextale_sp,2020.2.3,Win32,60,,,,,,,,,82,empirador,0,,,0,1,1.272495,0,5,5,81,1,REAL,FALSA
,,,,,,, 5e64ce85ef80c6245d49dee8,001,2020-10-27_18h41.55.146,lextale_sp,2020.2.3,Win32,60,,,,,,,,,43,canela,1,,,1,1,1.34885,0,6,6,42,1,REAL,FALSA
,,,,,,, 5e64ce85ef80c6245d49dee8,001,2020-10-27_18h41.55.146,lextale_sp,2020.2.3,Win32,60,,,,,,,,,32,fatacidad,0,,,0,1,1.135265,0,7,7,31,1,REAL,FALSA
,,,,,,, 5e64ce85ef80c6245d49dee8,001,2020-10-27_18h41.55.146,lextale_sp,2020.2.3,Win32,60,,,,,,,,,4,batillón,0,,,0,1,0.86905,0,8,8,3,1,REAL,FALSA
,,,,,,, 5e64ce85ef80c6245d49dee8,001,2020-10-27_18h41.55.146,lextale_sp,2020.2.3,Win32,60,,,,,,,,,66,hacido,0,,,0,1,1.18307,0,9,9,65,1,REAL,FALSA
,,,,,,, 5e64ce85ef80c6245d49dee8,001,2020-10-27_18h41.55.146,lextale_sp,2020.2.3,Win32,60,,,,,,,,,7,pésimo,1,,,1,1,0.802845,0,10,10,6,1,REAL,FALSA
,,,,,,, 5e64ce85ef80c6245d49dee8,001,2020-10-27_18h41.55.146,lextale_sp,2020.2.3,Win32,60,,,,,,,,,33,pauca,0,,,0,1,0.76701,0,11,11,32,1,REAL,FALSA
,,,,,,, 5e64ce85ef80c6245d49dee8,001,2020-10-27_18h41.55.146,lextale_sp,2020.2.3,Win32,60,,,,,,,,,21,capillo,0,,,0,1,1.100075,0,12,12,20,1,REAL,FALSA
,,,,,,, 5e64ce85ef80c6245d49dee8,001,2020-10-27_18h41.55.146,lextale_sp,2020.2.3,Win32,60,,,,,,,,,14,yunque,1,,,1,1,0.75135,0,13,13,13,1,REAL,FALSA
,,,,,,, 5e64ce85ef80c6245d49dee8,001,2020-10-27_18h41.55.146,lextale_sp,2020.2.3,Win32,60,,,,,,,,,90,clavel,1,,,1,1,0.71532,0,14,14,89,1,REAL,FALSA
,,,,,,, 5e64ce85ef80c6245d49dee8,001,2020-10-27_18h41.55.146,lextale_sp,2020.2.3,Win32,60,,,,,,,,,11,cenefa,1,,,0,0,0.73343,0,15,15,10,1,REAL,FALSA
,,,,,,, 5e64ce85ef80c6245d49dee8,001,2020-10-27_18h41.55.146,lextale_sp,2020.2.3,Win32,60,,,,,,,,,8,cadeña,0,,,0,1,2.000595,0,16,16,7,1,REAL,FALSA
,,,,,,, 5e64ce85ef80c6245d49dee8,001,2020-10-27_18h41.55.146,lextale_sp,2020.2.3,Win32,60,,,,,,,,,60,matar,1,,,1,1,1.02016,0,17,17,59,1,REAL,FALSA
,,,,,,, 5e64ce85ef80c6245d49dee8,001,2020-10-27_18h41.55.146,lextale_sp,2020.2.3,Win32,60,,,,,,,,,20,ávido,1,,,1,1,1.034265,0,18,18,19,1,REAL,FALSA
,,,,,,, 5e64ce85ef80c6245d49dee8,001,2020-10-27_18h41.55.146,lextale_sp,2020.2.3,Win32,60,,,,,,,,,50,flamida,0,,,0,1,5.313655,0,19,19,49,1,REAL,FALSA
,,,,,,, 5e64ce85ef80c6245d49dee8,001,2020-10-27_18h41.55.146,lextale_sp,2020.2.3,Win32,60,,,,,,,,,24,látigo,1,,,1,1,0.755195,0,20,20,23,1,REAL,FALSA
,,,,,,, 5e64ce85ef80c6245d49dee8,001,2020-10-27_18h41.55.146,lextale_sp,2020.2.3,Win32,60,,,,,,,,,38,estornudar,1,,,1,1,1.496195,0,21,21,37,1,REAL,FALSA
,,,,,,, 5e64ce85ef80c6245d49dee8,001,2020-10-27_18h41.55.146,lextale_sp,2020.2.3,Win32,60,,,,,,,,,51,candado,1,,,1,1,0.713385,0,22,22,50,1,REAL,FALSA
,,,,,,, 5e64ce85ef80c6245d49dee8,001,2020-10-27_18h41.55.146,lextale_sp,2020.2.3,Win32,60,,,,,,,,,34,aviso,1,,,1,1,0.88958,0,23,23,33,1,REAL,FALSA
,,,,,,, 5e64ce85ef80c6245d49dee8,001,2020-10-27_18h41.55.146,lextale_sp,2020.2.3,Win32,60,,,,,,,,,46,martillo,1,,,1,1,0.81534,0,24,24,45,1,REAL,FALSA
,,,,,,, 5e64ce85ef80c6245d49dee8,001,2020-10-27_18h41.55.146,lextale_sp,2020.2.3,Win32,60,,,,,,,,,54,fomentar,1,,,1,1,0.87974,0,25,25,53,1,REAL,FALSA
,,,,,,, 5e64ce85ef80c6245d49dee8,001,2020-10-27_18h41.55.146,lextale_sp,2020.2.3,Win32,60,,,,,,,,,9,hacha,1,,,1,1,0.703355,0,26,26,8,1,REAL,FALSA
,,,,,,, 5e64ce85ef80c6245d49dee8,001,2020-10-27_18h41.55.146,lextale_sp,2020.2.3,Win32,60,,,,,,,,,52,camisa,1,,,1,1,0.718185,0,27,27,51,1,REAL,FALSA
,,,,,,, 5e64ce85ef80c6245d49dee8,001,2020-10-27_18h41.55.146,lextale_sp,2020.2.3,Win32,60,,,,,,,,,17,floroso,0,,,0,1,1.218635,0,28,28,16,1,REAL,FALSA
,,,,,,, 5e64ce85ef80c6245d49dee8,001,2020-10-27_18h41.55.146,lextale_sp,2020.2.3,Win32,60,,,,,,,,,76,atar,1,,,1,1,0.81162,0,29,29,75,1,REAL,FALSA
,,,,,,, 5e64ce85ef80c6245d49dee8,001,2020-10-27_18h41.55.146,lextale_sp,2020.2.3,Win32,60,,,,,,,,,63,esposante,0,,,0,1,0.9831,0,30,30,62,1,REAL,FALSA
,,,,,,, 5e64ce85ef80c6245d49dee8,001,2020-10-27_18h41.55.146,lextale_sp,2020.2.3,Win32,60,,,,,,,,,74,cintro,0,,,0,1,1.50187,0,31,31,73,1,REAL,FALSA
,,,,,,, 5e64ce85ef80c6245d49dee8,001,2020-10-27_18h41.55.146,lextale_sp,2020.2.3,Win32,60,,,,,,,,,40,alfombra,1,,,1,1,0.824955,0,32,32,39,1,REAL,FALSA
,,,,,,, 5e64ce85ef80c6245d49dee8,001,2020-10-27_18h41.55.146,lextale_sp,2020.2.3,Win32,60,,,,,,,,,84,escuto,0,,,0,1,0.886415,0,33,33,83,1,REAL,FALSA
,,,,,,, 5e64ce85ef80c6245d49dee8,001,2020-10-27_18h41.55.146,lextale_sp,2020.2.3,Win32,60,,,,,,,,,65,bizcocho,1,,,1,1,1.432575,0,34,34,64,1,REAL,FALSA
,,,,,,, 5e64ce85ef80c6245d49dee8,001,2020-10-27_18h41.55.146,lextale_sp,2020.2.3,Win32,60,,,,,,,,,68,alegre,1,,,1,1,2.950225,0,35,35,67,1,REAL,FALSA
,,,,,,, 5e64ce85ef80c6245d49dee8,001,2020-10-27_18h41.55.146,lextale_sp,2020.2.3,Win32,60,,,,,,,,,22,lacayo,1,,,1,1,1.014195,0,36,36,21,1,REAL,FALSA
,,,,,,, 5e64ce85ef80c6245d49dee8,001,2020-10-27_18h41.55.146,lextale_sp,2020.2.3,Win32,60,,,,,,,,,80,hormiga,1,,,1,1,0.78356,0,37,37,79,1,REAL,FALSA
,,,,,,, 5e64ce85ef80c6245d49dee8,001,2020-10-27_18h41.55.146,lextale_sp,2020.2.3,Win32,60,,,,,,,,,70,temblo,0,,,0,1,0.93404,0,38,38,69,1,REAL,FALSA
,,,,,,, 5e64ce85ef80c6245d49dee8,001,2020-10-27_18h41.55.146,lextale_sp,2020.2.3,Win32,60,,,,,,,,,44,cuchara,1,,,1,1,2.09813,0,39,39,43,1,REAL,FALSA
,,,,,,, 5e64ce85ef80c6245d49dee8,001,2020-10-27_18h41.55.146,lextale_sp,2020.2.3,Win32,60,,,,,,,,,73,hervidor,1,,,1,1,1.033865,0,40,40,72,1,REAL,FALSA
,,,,,,, 5e64ce85ef80c6245d49dee8,001,2020-10-27_18h41.55.146,lextale_sp,2020.2.3,Win32,60,,,,,,,,,15,regar,1,,,1,1,0.75014,0,41,41,14,1,REAL,FALSA
,,,,,,, 5e64ce85ef80c6245d49dee8,001,2020-10-27_18h41.55.146,lextale_sp,2020.2.3,Win32,60,,,,,,,,,39,torpe,1,,,1,1,0.75171,0,42,42,38,1,REAL,FALSA
,,,,,,, 5e64ce85ef80c6245d49dee8,001,2020-10-27_18h41.55.146,lextale_sp,2020.2.3,Win32,60,,,,,,,,,27,acutación,0,,,0,1,1.15561,0,43,43,26,1,REAL,FALSA
,,,,,,, 5e64ce85ef80c6245d49dee8,001,2020-10-27_18h41.55.146,lextale_sp,2020.2.3,Win32,60,,,,,,,,,89,prisa,1,,,1,1,1.266125,0,44,44,88,1,REAL,FALSA
,,,,,,, 5e64ce85ef80c6245d49dee8,001,2020-10-27_18h41.55.146,lextale_sp,2020.2.3,Win32,60,,,,,,,,,78,frondoso,1,,,1,1,1.033675,0,45,45,77,1,REAL,FALSA
,,,,,,, 5e64ce85ef80c6245d49dee8,001,2020-10-27_18h41.55.146,lextale_sp,2020.2.3,Win32,60,,,,,,,,,48,ladrón,1,,,1,1,0.783745,0,46,46,47,1,REAL,FALSA
,,,,,,, 5e64ce85ef80c6245d49dee8,001,2020-10-27_18h41.55.146,lextale_sp,2020.2.3,Win32,60,,,,,,,,,47,cartinar,0,,,0,1,1.160485,0,47,47,46,1,REAL,FALSA
,,,,,,, 5e64ce85ef80c6245d49dee8,001,2020-10-27_18h41.55.146,lextale_sp,2020.2.3,Win32,60,,,,,,,,,5,zapato,1,,,1,1,0.784765,0,48,48,4,1,REAL,FALSA
,,,,,,, 5e64ce85ef80c6245d49dee8,001,2020-10-27_18h41.55.146,lextale_sp,2020.2.3,Win32,60,,,,,,,,,18,arsa,0,,,0,1,0.72961,0,49,49,17,1,REAL,FALSA
,,,,,,, 5e64ce85ef80c6245d49dee8,001,2020-10-27_18h41.55.146,lextale_sp,2020.2.3,Win32,60,,,,,,,,,57,tacaño,1,,,1,1,0.884415,0,50,50,56,1,REAL,FALSA
,,,,,,, 5e64ce85ef80c6245d49dee8,001,2020-10-27_18h41.55.146,lextale_sp,2020.2.3,Win32,60,,,,,,,,,55,nevar,1,,,1,1,1.791635,0,51,51,54,1,REAL,FALSA
,,,,,,, 5e64ce85ef80c6245d49dee8,001,2020-10-27_18h41.55.146,lextale_sp,2020.2.3,Win32,60,,,,,,,,,77,tiburón,1,,,1,1,0.651985,0,52,52,76,1,REAL,FALSA
,,,,,,, 5e64ce85ef80c6245d49dee8,001,2020-10-27_18h41.55.146,lextale_sp,2020.2.3,Win32,60,,,,,,,,,87,grodo,0,,,0,1,0.866715,0,53,53,86,1,REAL,FALSA
,,,,,,, 5e64ce85ef80c6245d49dee8,001,2020-10-27_18h41.55.146,lextale_sp,2020.2.3,Win32,60,,,,,,,,,71,polvoriento,1,,,1,1,1.269925,0,54,54,70,1,REAL,FALSA
,,,,,,, 5e64ce85ef80c6245d49dee8,001,2020-10-27_18h41.55.146,lextale_sp,2020.2.3,Win32,60,,,,,,,,,10,antar,0,,,0,1,1.01593,0,55,55,9,1,REAL,FALSA
,,,,,,, 5e64ce85ef80c6245d49dee8,001,2020-10-27_18h41.55.146,lextale_sp,2020.2.3,Win32,60,,,,,,,,,49,ganar,1,,,1,1,0.586515,0,56,56,48,1,REAL,FALSA
,,,,,,, 5e64ce85ef80c6245d49dee8,001,2020-10-27_18h41.55.146,lextale_sp,2020.2.3,Win32,60,,,,,,,,,29,decar,0,,,0,1,1.25487,0,57,57,28,1,REAL,FALSA
,,,,,,, 5e64ce85ef80c6245d49dee8,001,2020-10-27_18h41.55.146,lextale_sp,2020.2.3,Win32,60,,,,,,,,,58,plaudir,0,,,0,1,0.932925,0,58,58,57,1,REAL,FALSA
,,,,,,, 5e64ce85ef80c6245d49dee8,001,2020-10-27_18h41.55.146,lextale_sp,2020.2.3,Win32,60,,,,,,,,,37,granuja,1,,,1,1,2.05749,0,59,59,36,1,REAL,FALSA
,,,,,,, 5e64ce85ef80c6245d49dee8,001,2020-10-27_18h41.55.146,lextale_sp,2020.2.3,Win32,60,,,,,,,,,59,besar,1,,,1,1,0.619735,0,60,60,58,1,REAL,FALSA
,,,,,,, 5e64ce85ef80c6245d49dee8,001,2020-10-27_18h41.55.146,lextale_sp,2020.2.3,Win32,60,,,,,,,,,85,laúd,1,,,1,1,3.1139,0,61,61,84,1,REAL,FALSA
,,,,,,, 5e64ce85ef80c6245d49dee8,001,2020-10-27_18h41.55.146,lextale_sp,2020.2.3,Win32,60,,,,,,,,,13,helar,1,,,1,1,1.570535,0,62,62,12,1,REAL,FALSA
,,,,,,, 5e64ce85ef80c6245d49dee8,001,2020-10-27_18h41.55.146,lextale_sp,2020.2.3,Win32,60,,,,,,,,,42,cadallo,0,,,0,1,1.01928,0,63,63,41,1,REAL,FALSA
,,,,,,, 5e64ce85ef80c6245d49dee8,001,2020-10-27_18h41.55.146,lextale_sp,2020.2.3,Win32,60,,,,,,,,,12,asesinato,1,,,1,1,0.96796,0,64,64,11,1,REAL,FALSA
,,,,,,, 5e64ce85ef80c6245d49dee8,001,2020-10-27_18h41.55.146,lextale_sp,2020.2.3,Win32,60,,,,,,,,,28,merodear,1,,,1,1,1.06805,0,65,65,27,1,REAL,FALSA
,,,,,,, 5e64ce85ef80c6245d49dee8,001,2020-10-27_18h41.55.146,lextale_sp,2020.2.3,Win32,60,,,,,,,,,41,rebuscar,1,,,1,1,1.069285,0,66,66,40,1,REAL,FALSA
,,,,,,, 5e64ce85ef80c6245d49dee8,001,2020-10-27_18h41.55.146,lextale_sp,2020.2.3,Win32,60,,,,,,,,,86,barato,1,,,1,1,0.74972,0,67,67,85,1,REAL,FALSA
,,,,,,, 5e64ce85ef80c6245d49dee8,001,2020-10-27_18h41.55.146,lextale_sp,2020.2.3,Win32,60,,,,,,,,,45,jilguero,1,,,1,1,11.29391,0,68,68,44,1,REAL,FALSA
,,,,,,, 5e64ce85ef80c6245d49dee8,001,2020-10-27_18h41.55.146,lextale_sp,2020.2.3,Win32,60,,,,,,,,,19,brecedad,0,,,0,1,2.76142,0,69,69,18,1,REAL,FALSA
,,,,,,, 5e64ce85ef80c6245d49dee8,001,2020-10-27_18h41.55.146,lextale_sp,2020.2.3,Win32,60,,,,,,,,,31,pandilla,1,,,1,1,0.733895,0,70,70,30,1,REAL,FALSA
,,,,,,, 5e64ce85ef80c6245d49dee8,001,2020-10-27_18h41.55.146,lextale_sp,2020.2.3,Win32,60,,,,,,,,,75,yacer,1,,,1,1,0.679115,0,71,71,74,1,REAL,FALSA
,,,,,,, 5e64ce85ef80c6245d49dee8,001,2020-10-27_18h41.55.146,lextale_sp,2020.2.3,Win32,60,,,,,,,,,6,tergiversar,1,,,1,1,1.850925,0,72,72,5,1,REAL,FALSA
,,,,,,, 5e64ce85ef80c6245d49dee8,001,2020-10-27_18h41.55.146,lextale_sp,2020.2.3,Win32,60,,,,,,,,,64,orgulloso,1,,,1,1,0.614175,0,73,73,63,1,REAL,FALSA
,,,,,,, 5e64ce85ef80c6245d49dee8,001,2020-10-27_18h41.55.146,lextale_sp,2020.2.3,Win32,60,,,,,,,,,61,seda,1,,,1,1,0.76695,0,74,74,60,1,REAL,FALSA
,,,,,,, 5e64ce85ef80c6245d49dee8,001,2020-10-27_18h41.55.146,lextale_sp,2020.2.3,Win32,60,,,,,,,,,16,abracer,0,,,0,1,0.98643,0,75,75,15,1,REAL,FALSA
,,,,,,, 5e64ce85ef80c6245d49dee8,001,2020-10-27_18h41.55.146,lextale_sp,2020.2.3,Win32,60,,,,,,,,,72,pemición,0,,,0,1,1.34533,0,76,76,71,1,REAL,FALSA
,,,,,,, 5e64ce85ef80c6245d49dee8,001,2020-10-27_18h41.55.146,lextale_sp,2020.2.3,Win32,60,,,,,,,,,30,alardio,0,,,0,1,1.351445,0,77,77,29,1,REAL,FALSA
,,,,,,, 5e64ce85ef80c6245d49dee8,001,2020-10-27_18h41.55.146,lextale_sp,2020.2.3,Win32,60,,,,,,,,,62,flaco,1,,,1,1,0.684585,0,78,78,61,1,REAL,FALSA
,,,,,,, 5e64ce85ef80c6245d49dee8,001,2020-10-27_18h41.55.146,lextale_sp,2020.2.3,Win32,60,,,,,,,,,53,vegada,0,,,0,1,0.98865,0,79,79,52,1,REAL,FALSA
,,,,,,, 5e64ce85ef80c6245d49dee8,001,2020-10-27_18h41.55.146,lextale_sp,2020.2.3,Win32,60,,,,,,,,,88,acantilado,1,,,1,1,1.33647,0,80,80,87,1,REAL,FALSA
,,,,,,, 5e64ce85ef80c6245d49dee8,001,2020-10-27_18h41.55.146,lextale_sp,2020.2.3,Win32,60,,,,,,,,,69,engatusar,1,,,1,1,0.90091,0,81,81,68,1,REAL,FALSA
,,,,,,, 5e64ce85ef80c6245d49dee8,001,2020-10-27_18h41.55.146,lextale_sp,2020.2.3,Win32,60,,,,,,,,,25,bisagra,1,,,1,1,1.421185,0,82,82,24,1,REAL,FALSA
,,,,,,, 5e64ce85ef80c6245d49dee8,001,2020-10-27_18h41.55.146,lextale_sp,2020.2.3,Win32,60,,,,,,,,,1,terzo,0,,,0,1,0.87336,0,83,83,0,1,REAL,FALSA
,,,,,,, 5e64ce85ef80c6245d49dee8,001,2020-10-27_18h41.55.146,lextale_sp,2020.2.3,Win32,60,,,,,,,,,26,secuestro,1,,,1,1,1.16852,0,84,84,25,1,REAL,FALSA
,,,,,,, 5e64ce85ef80c6245d49dee8,001,2020-10-27_18h41.55.146,lextale_sp,2020.2.3,Win32,60,,,,,,,,,36,loro,1,,,1,1,0.962335,0,85,85,35,1,REAL,FALSA
,,,,,,, 5e64ce85ef80c6245d49dee8,001,2020-10-27_18h41.55.146,lextale_sp,2020.2.3,Win32,60,,,,,,,,,81,pozo,1,,,1,1,0.670705,0,86,86,80,1,REAL,FALSA
,,,,,,, 5e64ce85ef80c6245d49dee8,001,2020-10-27_18h41.55.146,lextale_sp,2020.2.3,Win32,60,,,,,,,,,35,rompido,0,,,0,1,0.85413,0,87,87,34,1,REAL,FALSA
,,,,,,, 5e64ce85ef80c6245d49dee8,001,2020-10-27_18h41.55.146,lextale_sp,2020.2.3,Win32,60,,,,,,,,,2,pellizcar,1,,,1,1,0.952285,0,88,88,1,1,REAL,FALSA
,,,,,,, 5e64ce85ef80c6245d49dee8,001,2020-10-27_18h41.55.146,lextale_sp,2020.2.3,Win32,60,,,,,,,,,79,tropaje,0,,,0,1,0.93254,0,89,89,78,1,REAL,FALSA
