lextale_instructions_loop.thisRepN,lextale_instructions_loop.thisTrialN,lextale_instructions_loop.thisN,lextale_instructions_loop.thisIndex,lextale_instructions_loop.ran,instructions_text,continue_text,participant,session,date,expName,psychopyVersion,OS,frameRate,key_resp_lextale_practice.keys,key_resp_lextale_practice.corr,key_resp_lextale_practice.rt,lextale_practice_trials.thisRepN,lextale_practice_trials.thisTrialN,lextale_practice_trials.thisN,lextale_practice_trials.thisIndex,lextale_practice_trials.ran,stim,word,correct_response,prac_button_real,prac_button_false,key_resp_lextale_trial.keys,key_resp_lextale_trial.corr,key_resp_lextale_trial.rt,lextail_trials.thisRepN,lextail_trials.thisTrialN,lextail_trials.thisN,lextail_trials.thisIndex,lextail_trials.ran,button_real,button_false
0,0,0,0,1,"Este es un test de vocabulario en español. 
  
  A continuación vas a ver 90 secuencias de letras que parecen 'españolas'.
  
  Solo algunas de ellas son palabras de verdad.",(presiona la barra espaciadora para continuar),5ece7b97ba09f5253c4c0238,001,2020-10-29_19h20.15.928,lextale_sp,2020.2.3,Win32,60,,,,,,,,,,,,,,,,,,,,,,,
0,1,1,1,1,"Por favor, señala las palabras que tú conoces (aquellas que estás convencido que son palabras españolas, incluso aunque no seas capaz de dar el significado preciso).",(presiona la barra espaciadora para continuar),5ece7b97ba09f5253c4c0238,001,2020-10-29_19h20.15.928,lextale_sp,2020.2.3,Win32,60,,,,,,,,,,,,,,,,,,,,,,,
0,2,2,2,1,Pero cuidado: los errores se penalizan. Por eso no tiene sentido tratar de incrementar tu puntuación marcando como reales palabras que nunca has visto.,(presiona la barra espaciadora para continuar),5ece7b97ba09f5253c4c0238,001,2020-10-29_19h20.15.928,lextale_sp,2020.2.3,Win32,60,,,,,,,,,,,,,,,,,,,,,,,
0,3,3,3,1,"Presiona la tecla 1 si piensas que es una palabra real y la tecla 
  0 si piensas que es una palabra falsa. 
  
  Vamos a practicar un poco...",(presiona la barra espaciadora para continuar),5ece7b97ba09f5253c4c0238,001,2020-10-29_19h20.15.928,lextale_sp,2020.2.3,Win32,60,,,,,,,,,,,,,,,,,,,,,,,
,,,,,,,5ece7b97ba09f5253c4c0238,001,2020-10-29_19h20.15.928,lextale_sp,2020.2.3,Win32,60,1,0,2.05705,0,0,0,0,1,0,depiste,0,REAL,FALSA,,,,,,,,,,
,,,,,,,5ece7b97ba09f5253c4c0238,001,2020-10-29_19h20.15.928,lextale_sp,2020.2.3,Win32,60,1,1,1.314245,0,1,1,1,1,0,sí,1,REAL,FALSA,,,,,,,,,,
,,,,,,,5ece7b97ba09f5253c4c0238,001,2020-10-29_19h20.15.928,lextale_sp,2020.2.3,Win32,60,0,1,1.493075,0,2,2,2,1,0,coné,0,REAL,FALSA,,,,,,,,,,
,,,,,,,5ece7b97ba09f5253c4c0238,001,2020-10-29_19h20.15.928,lextale_sp,2020.2.3,Win32,60,0,1,2.28306,0,3,3,3,1,0,calpar,0,REAL,FALSA,,,,,,,,,,
,,,,,,,5ece7b97ba09f5253c4c0238,001,2020-10-29_19h20.15.928,lextale_sp,2020.2.3,Win32,60,0,1,0.8802,0,4,4,4,1,0,joten,0,REAL,FALSA,,,,,,,,,,
,,,,,,,5ece7b97ba09f5253c4c0238,001,2020-10-29_19h20.15.928,lextale_sp,2020.2.3,Win32,60,1,1,1.02987,0,5,5,5,1,0,sacapuntas,1,REAL,FALSA,,,,,,,,,,
,,,,,,,5ece7b97ba09f5253c4c0238,001,2020-10-29_19h20.15.928,lextale_sp,2020.2.3,Win32,60,0,1,0.915455,0,6,6,6,1,0,priba,0,REAL,FALSA,,,,,,,,,,
,,,,,,,5ece7b97ba09f5253c4c0238,001,2020-10-29_19h20.15.928,lextale_sp,2020.2.3,Win32,60,0,1,1.584935,0,7,7,7,1,0,pelasula,0,REAL,FALSA,,,,,,,,,,
,,,,,,,5ece7b97ba09f5253c4c0238,001,2020-10-29_19h20.15.928,lextale_sp,2020.2.3,Win32,60,1,1,0.99816,0,8,8,8,1,0,bien,1,REAL,FALSA,,,,,,,,,,
,,,,,,,5ece7b97ba09f5253c4c0238,001,2020-10-29_19h20.15.928,lextale_sp,2020.2.3,Win32,60,1,1,0.73083,0,9,9,9,1,0,casa,1,REAL,FALSA,,,,,,,,,,
,,,,,,,5ece7b97ba09f5253c4c0238,001,2020-10-29_19h20.15.928,lextale_sp,2020.2.3,Win32,60,1,0,1.06524,0,10,10,10,1,0,lejo,0,REAL,FALSA,,,,,,,,,,
,,,,,,,5ece7b97ba09f5253c4c0238,001,2020-10-29_19h20.15.928,lextale_sp,2020.2.3,Win32,60,0,1,1.07439,0,11,11,11,1,0,pretantas,0,REAL,FALSA,,,,,,,,,,
,,,,,,,5ece7b97ba09f5253c4c0238,001,2020-10-29_19h20.15.928,lextale_sp,2020.2.3,Win32,60,,,,,,,,,48,ladrón,1,,,1,1,1.38033,0,0,0,47,1,REAL,FALSA
,,,,,,,5ece7b97ba09f5253c4c0238,001,2020-10-29_19h20.15.928,lextale_sp,2020.2.3,Win32,60,,,,,,,,,66,hacido,0,,,0,1,2.455065,0,1,1,65,1,REAL,FALSA
,,,,,,,5ece7b97ba09f5253c4c0238,001,2020-10-29_19h20.15.928,lextale_sp,2020.2.3,Win32,60,,,,,,,,,32,fatacidad,0,,,0,1,1.643665,0,2,2,31,1,REAL,FALSA
,,,,,,,5ece7b97ba09f5253c4c0238,001,2020-10-29_19h20.15.928,lextale_sp,2020.2.3,Win32,60,,,,,,,,,86,barato,1,,,1,1,0.641405,0,3,3,85,1,REAL,FALSA
,,,,,,,5ece7b97ba09f5253c4c0238,001,2020-10-29_19h20.15.928,lextale_sp,2020.2.3,Win32,60,,,,,,,,,14,yunque,1,,,0,0,0.920925,0,4,4,13,1,REAL,FALSA
,,,,,,,5ece7b97ba09f5253c4c0238,001,2020-10-29_19h20.15.928,lextale_sp,2020.2.3,Win32,60,,,,,,,,,42,cadallo,0,,,0,1,2.037895,0,5,5,41,1,REAL,FALSA
,,,,,,,5ece7b97ba09f5253c4c0238,001,2020-10-29_19h20.15.928,lextale_sp,2020.2.3,Win32,60,,,,,,,,,12,asesinato,1,,,1,1,0.92291,0,6,6,11,1,REAL,FALSA
,,,,,,,5ece7b97ba09f5253c4c0238,001,2020-10-29_19h20.15.928,lextale_sp,2020.2.3,Win32,60,,,,,,,,,61,seda,1,,,1,1,1.15334,0,7,7,60,1,REAL,FALSA
,,,,,,,5ece7b97ba09f5253c4c0238,001,2020-10-29_19h20.15.928,lextale_sp,2020.2.3,Win32,60,,,,,,,,,71,polvoriento,1,,,0,0,1.681935,0,8,8,70,1,REAL,FALSA
,,,,,,,5ece7b97ba09f5253c4c0238,001,2020-10-29_19h20.15.928,lextale_sp,2020.2.3,Win32,60,,,,,,,,,40,alfombra,1,,,0,0,2.57074,0,9,9,39,1,REAL,FALSA
,,,,,,,5ece7b97ba09f5253c4c0238,001,2020-10-29_19h20.15.928,lextale_sp,2020.2.3,Win32,60,,,,,,,,,56,musgo,1,,,0,0,2.00708,0,10,10,55,1,REAL,FALSA
,,,,,,,5ece7b97ba09f5253c4c0238,001,2020-10-29_19h20.15.928,lextale_sp,2020.2.3,Win32,60,,,,,,,,,33,pauca,0,,,0,1,1.078695,0,11,11,32,1,REAL,FALSA
,,,,,,,5ece7b97ba09f5253c4c0238,001,2020-10-29_19h20.15.928,lextale_sp,2020.2.3,Win32,60,,,,,,,,,2,pellizcar,1,,,0,0,2.643505,0,12,12,1,1,REAL,FALSA
,,,,,,,5ece7b97ba09f5253c4c0238,001,2020-10-29_19h20.15.928,lextale_sp,2020.2.3,Win32,60,,,,,,,,,53,vegada,0,,,1,0,1.897915,0,13,13,52,1,REAL,FALSA
,,,,,,,5ece7b97ba09f5253c4c0238,001,2020-10-29_19h20.15.928,lextale_sp,2020.2.3,Win32,60,,,,,,,,,63,esposante,0,,,0,1,1.541905,0,14,14,62,1,REAL,FALSA
,,,,,,,5ece7b97ba09f5253c4c0238,001,2020-10-29_19h20.15.928,lextale_sp,2020.2.3,Win32,60,,,,,,,,,54,fomentar,1,,,1,1,1.887845,0,15,15,53,1,REAL,FALSA
,,,,,,,5ece7b97ba09f5253c4c0238,001,2020-10-29_19h20.15.928,lextale_sp,2020.2.3,Win32,60,,,,,,,,,16,abracer,0,,,0,1,2.61416,0,16,16,15,1,REAL,FALSA
,,,,,,,5ece7b97ba09f5253c4c0238,001,2020-10-29_19h20.15.928,lextale_sp,2020.2.3,Win32,60,,,,,,,,,45,jilguero,1,,,0,0,1.503935,0,17,17,44,1,REAL,FALSA
,,,,,,,5ece7b97ba09f5253c4c0238,001,2020-10-29_19h20.15.928,lextale_sp,2020.2.3,Win32,60,,,,,,,,,81,pozo,1,,,1,1,0.840355,0,18,18,80,1,REAL,FALSA
,,,,,,,5ece7b97ba09f5253c4c0238,001,2020-10-29_19h20.15.928,lextale_sp,2020.2.3,Win32,60,,,,,,,,,60,matar,1,,,1,1,0.695705,0,19,19,59,1,REAL,FALSA
,,,,,,,5ece7b97ba09f5253c4c0238,001,2020-10-29_19h20.15.928,lextale_sp,2020.2.3,Win32,60,,,,,,,,,72,pemición,0,,,0,1,1.23717,0,20,20,71,1,REAL,FALSA
,,,,,,,5ece7b97ba09f5253c4c0238,001,2020-10-29_19h20.15.928,lextale_sp,2020.2.3,Win32,60,,,,,,,,,29,decar,0,,,1,0,1.1959,0,21,21,28,1,REAL,FALSA
,,,,,,,5ece7b97ba09f5253c4c0238,001,2020-10-29_19h20.15.928,lextale_sp,2020.2.3,Win32,60,,,,,,,,,41,rebuscar,1,,,1,1,0.6768,0,22,22,40,1,REAL,FALSA
,,,,,,,5ece7b97ba09f5253c4c0238,001,2020-10-29_19h20.15.928,lextale_sp,2020.2.3,Win32,60,,,,,,,,,74,cintro,0,,,1,0,0.47558,0,23,23,73,1,REAL,FALSA
,,,,,,,5ece7b97ba09f5253c4c0238,001,2020-10-29_19h20.15.928,lextale_sp,2020.2.3,Win32,60,,,,,,,,,70,temblo,0,,,1,0,0.71337,0,24,24,69,1,REAL,FALSA
,,,,,,,5ece7b97ba09f5253c4c0238,001,2020-10-29_19h20.15.928,lextale_sp,2020.2.3,Win32,60,,,,,,,,,36,loro,1,,,1,1,0.63797,0,25,25,35,1,REAL,FALSA
,,,,,,,5ece7b97ba09f5253c4c0238,001,2020-10-29_19h20.15.928,lextale_sp,2020.2.3,Win32,60,,,,,,,,,55,nevar,1,,,1,1,0.821855,0,26,26,54,1,REAL,FALSA
,,,,,,,5ece7b97ba09f5253c4c0238,001,2020-10-29_19h20.15.928,lextale_sp,2020.2.3,Win32,60,,,,,,,,,73,hervidor,1,,,1,1,1.254285,0,27,27,72,1,REAL,FALSA
,,,,,,,5ece7b97ba09f5253c4c0238,001,2020-10-29_19h20.15.928,lextale_sp,2020.2.3,Win32,60,,,,,,,,,44,cuchara,1,,,1,1,1.659565,0,28,28,43,1,REAL,FALSA
,,,,,,,5ece7b97ba09f5253c4c0238,001,2020-10-29_19h20.15.928,lextale_sp,2020.2.3,Win32,60,,,,,,,,,75,yacer,1,,,0,0,1.10544,0,29,29,74,1,REAL,FALSA
,,,,,,,5ece7b97ba09f5253c4c0238,001,2020-10-29_19h20.15.928,lextale_sp,2020.2.3,Win32,60,,,,,,,,,30,alardio,0,,,0,1,1.3525,0,30,30,29,1,REAL,FALSA
,,,,,,,5ece7b97ba09f5253c4c0238,001,2020-10-29_19h20.15.928,lextale_sp,2020.2.3,Win32,60,,,,,,,,,5,zapato,1,,,1,1,0.688555,0,31,31,4,1,REAL,FALSA
,,,,,,,5ece7b97ba09f5253c4c0238,001,2020-10-29_19h20.15.928,lextale_sp,2020.2.3,Win32,60,,,,,,,,,35,rompido,0,,,0,1,2.08749,0,32,32,34,1,REAL,FALSA
,,,,,,,5ece7b97ba09f5253c4c0238,001,2020-10-29_19h20.15.928,lextale_sp,2020.2.3,Win32,60,,,,,,,,,10,antar,0,,,0,1,1.570955,0,33,33,9,1,REAL,FALSA
,,,,,,,5ece7b97ba09f5253c4c0238,001,2020-10-29_19h20.15.928,lextale_sp,2020.2.3,Win32,60,,,,,,,,,34,aviso,1,,,1,1,0.803305,0,34,34,33,1,REAL,FALSA
,,,,,,,5ece7b97ba09f5253c4c0238,001,2020-10-29_19h20.15.928,lextale_sp,2020.2.3,Win32,60,,,,,,,,,59,besar,1,,,1,1,0.739895,0,35,35,58,1,REAL,FALSA
,,,,,,,5ece7b97ba09f5253c4c0238,001,2020-10-29_19h20.15.928,lextale_sp,2020.2.3,Win32,60,,,,,,,,,78,frondoso,1,,,0,0,1.13718,0,36,36,77,1,REAL,FALSA
,,,,,,,5ece7b97ba09f5253c4c0238,001,2020-10-29_19h20.15.928,lextale_sp,2020.2.3,Win32,60,,,,,,,,,62,flaco,1,,,1,1,1.25813,0,37,37,61,1,REAL,FALSA
,,,,,,,5ece7b97ba09f5253c4c0238,001,2020-10-29_19h20.15.928,lextale_sp,2020.2.3,Win32,60,,,,,,,,,15,regar,1,,,0,0,0.904535,0,38,38,14,1,REAL,FALSA
,,,,,,,5ece7b97ba09f5253c4c0238,001,2020-10-29_19h20.15.928,lextale_sp,2020.2.3,Win32,60,,,,,,,,,22,lacayo,1,,,0,0,3.02908,0,39,39,21,1,REAL,FALSA
,,,,,,,5ece7b97ba09f5253c4c0238,001,2020-10-29_19h20.15.928,lextale_sp,2020.2.3,Win32,60,,,,,,,,,39,torpe,1,,,1,1,1.55468,0,40,40,38,1,REAL,FALSA
,,,,,,,5ece7b97ba09f5253c4c0238,001,2020-10-29_19h20.15.928,lextale_sp,2020.2.3,Win32,60,,,,,,,,,47,cartinar,0,,,0,1,2.00541,0,41,41,46,1,REAL,FALSA
,,,,,,,5ece7b97ba09f5253c4c0238,001,2020-10-29_19h20.15.928,lextale_sp,2020.2.3,Win32,60,,,,,,,,,3,pulmones,1,,,1,1,1.303735,0,42,42,2,1,REAL,FALSA
,,,,,,,5ece7b97ba09f5253c4c0238,001,2020-10-29_19h20.15.928,lextale_sp,2020.2.3,Win32,60,,,,,,,,,50,flamida,0,,,0,1,0.86471,0,43,43,49,1,REAL,FALSA
,,,,,,,5ece7b97ba09f5253c4c0238,001,2020-10-29_19h20.15.928,lextale_sp,2020.2.3,Win32,60,,,,,,,,,25,bisagra,1,,,0,0,0.838825,0,44,44,24,1,REAL,FALSA
,,,,,,,5ece7b97ba09f5253c4c0238,001,2020-10-29_19h20.15.928,lextale_sp,2020.2.3,Win32,60,,,,,,,,,69,engatusar,1,,,0,0,0.854295,0,45,45,68,1,REAL,FALSA
,,,,,,,5ece7b97ba09f5253c4c0238,001,2020-10-29_19h20.15.928,lextale_sp,2020.2.3,Win32,60,,,,,,,,,7,pésimo,1,,,1,1,0.644895,0,46,46,6,1,REAL,FALSA
,,,,,,,5ece7b97ba09f5253c4c0238,001,2020-10-29_19h20.15.928,lextale_sp,2020.2.3,Win32,60,,,,,,,,,24,látigo,1,,,0,0,0.84406,0,47,47,23,1,REAL,FALSA
,,,,,,,5ece7b97ba09f5253c4c0238,001,2020-10-29_19h20.15.928,lextale_sp,2020.2.3,Win32,60,,,,,,,,,6,tergiversar,1,,,0,0,1.018895,0,48,48,5,1,REAL,FALSA
,,,,,,,5ece7b97ba09f5253c4c0238,001,2020-10-29_19h20.15.928,lextale_sp,2020.2.3,Win32,60,,,,,,,,,82,empirador,0,,,0,1,0.996005,0,49,49,81,1,REAL,FALSA
,,,,,,,5ece7b97ba09f5253c4c0238,001,2020-10-29_19h20.15.928,lextale_sp,2020.2.3,Win32,60,,,,,,,,,79,tropaje,0,,,0,1,2.705005,0,50,50,78,1,REAL,FALSA
,,,,,,,5ece7b97ba09f5253c4c0238,001,2020-10-29_19h20.15.928,lextale_sp,2020.2.3,Win32,60,,,,,,,,,76,atar,1,,,0,0,1.05248,0,51,51,75,1,REAL,FALSA
,,,,,,,5ece7b97ba09f5253c4c0238,001,2020-10-29_19h20.15.928,lextale_sp,2020.2.3,Win32,60,,,,,,,,,37,granuja,1,,,0,0,1.17003,0,52,52,36,1,REAL,FALSA
,,,,,,,5ece7b97ba09f5253c4c0238,001,2020-10-29_19h20.15.928,lextale_sp,2020.2.3,Win32,60,,,,,,,,,65,bizcocho,1,,,1,1,0.79268,0,53,53,64,1,REAL,FALSA
,,,,,,,5ece7b97ba09f5253c4c0238,001,2020-10-29_19h20.15.928,lextale_sp,2020.2.3,Win32,60,,,,,,,,,84,escuto,0,,,0,1,3.89857,0,54,54,83,1,REAL,FALSA
,,,,,,,5ece7b97ba09f5253c4c0238,001,2020-10-29_19h20.15.928,lextale_sp,2020.2.3,Win32,60,,,,,,,,,90,clavel,1,,,1,1,0.61218,0,55,55,89,1,REAL,FALSA
,,,,,,,5ece7b97ba09f5253c4c0238,001,2020-10-29_19h20.15.928,lextale_sp,2020.2.3,Win32,60,,,,,,,,,1,terzo,0,,,0,1,0.76783,0,56,56,0,1,REAL,FALSA
,,,,,,,5ece7b97ba09f5253c4c0238,001,2020-10-29_19h20.15.928,lextale_sp,2020.2.3,Win32,60,,,,,,,,,20,ávido,1,,,0,0,4.00711,0,57,57,19,1,REAL,FALSA
,,,,,,,5ece7b97ba09f5253c4c0238,001,2020-10-29_19h20.15.928,lextale_sp,2020.2.3,Win32,60,,,,,,,,,89,prisa,1,,,1,1,0.53622,0,58,58,88,1,REAL,FALSA
,,,,,,,5ece7b97ba09f5253c4c0238,001,2020-10-29_19h20.15.928,lextale_sp,2020.2.3,Win32,60,,,,,,,,,17,floroso,0,,,0,1,0.92023,0,59,59,16,1,REAL,FALSA
,,,,,,,5ece7b97ba09f5253c4c0238,001,2020-10-29_19h20.15.928,lextale_sp,2020.2.3,Win32,60,,,,,,,,,58,plaudir,0,,,0,1,1.180405,0,60,60,57,1,REAL,FALSA
,,,,,,,5ece7b97ba09f5253c4c0238,001,2020-10-29_19h20.15.928,lextale_sp,2020.2.3,Win32,60,,,,,,,,,77,tiburón,1,,,1,1,3.109595,0,61,61,76,1,REAL,FALSA
,,,,,,,5ece7b97ba09f5253c4c0238,001,2020-10-29_19h20.15.928,lextale_sp,2020.2.3,Win32,60,,,,,,,,,19,brecedad,0,,,0,1,2.616305,0,62,62,18,1,REAL,FALSA
,,,,,,,5ece7b97ba09f5253c4c0238,001,2020-10-29_19h20.15.928,lextale_sp,2020.2.3,Win32,60,,,,,,,,,23,lampera,0,,,1,0,1.336635,0,63,63,22,1,REAL,FALSA
,,,,,,,5ece7b97ba09f5253c4c0238,001,2020-10-29_19h20.15.928,lextale_sp,2020.2.3,Win32,60,,,,,,,,,18,arsa,0,,,0,1,1.48254,0,64,64,17,1,REAL,FALSA
,,,,,,,5ece7b97ba09f5253c4c0238,001,2020-10-29_19h20.15.928,lextale_sp,2020.2.3,Win32,60,,,,,,,,,38,estornudar,1,,,1,1,1.94284,0,65,65,37,1,REAL,FALSA
,,,,,,,5ece7b97ba09f5253c4c0238,001,2020-10-29_19h20.15.928,lextale_sp,2020.2.3,Win32,60,,,,,,,,,43,canela,1,,,1,1,0.74503,0,66,66,42,1,REAL,FALSA
,,,,,,,5ece7b97ba09f5253c4c0238,001,2020-10-29_19h20.15.928,lextale_sp,2020.2.3,Win32,60,,,,,,,,,85,laúd,1,,,0,0,3.39637,0,67,67,84,1,REAL,FALSA
,,,,,,,5ece7b97ba09f5253c4c0238,001,2020-10-29_19h20.15.928,lextale_sp,2020.2.3,Win32,60,,,,,,,,,87,grodo,0,,,0,1,1.070105,0,68,68,86,1,REAL,FALSA
,,,,,,,5ece7b97ba09f5253c4c0238,001,2020-10-29_19h20.15.928,lextale_sp,2020.2.3,Win32,60,,,,,,,,,52,camisa,1,,,1,1,1.177515,0,69,69,51,1,REAL,FALSA
,,,,,,,5ece7b97ba09f5253c4c0238,001,2020-10-29_19h20.15.928,lextale_sp,2020.2.3,Win32,60,,,,,,,,,67,cabello,1,,,1,1,2.27129,0,70,70,66,1,REAL,FALSA
,,,,,,,5ece7b97ba09f5253c4c0238,001,2020-10-29_19h20.15.928,lextale_sp,2020.2.3,Win32,60,,,,,,,,,8,cadeña,0,,,0,1,0.769535,0,71,71,7,1,REAL,FALSA
,,,,,,,5ece7b97ba09f5253c4c0238,001,2020-10-29_19h20.15.928,lextale_sp,2020.2.3,Win32,60,,,,,,,,,27,acutación,0,,,0,1,0.81946,0,72,72,26,1,REAL,FALSA
,,,,,,,5ece7b97ba09f5253c4c0238,001,2020-10-29_19h20.15.928,lextale_sp,2020.2.3,Win32,60,,,,,,,,,13,helar,1,,,1,1,0.786255,0,73,73,12,1,REAL,FALSA
,,,,,,,5ece7b97ba09f5253c4c0238,001,2020-10-29_19h20.15.928,lextale_sp,2020.2.3,Win32,60,,,,,,,,,80,hormiga,1,,,1,1,0.61032,0,74,74,79,1,REAL,FALSA
,,,,,,,5ece7b97ba09f5253c4c0238,001,2020-10-29_19h20.15.928,lextale_sp,2020.2.3,Win32,60,,,,,,,,,4,batillón,0,,,0,1,1.22715,0,75,75,3,1,REAL,FALSA
,,,,,,,5ece7b97ba09f5253c4c0238,001,2020-10-29_19h20.15.928,lextale_sp,2020.2.3,Win32,60,,,,,,,,,9,hacha,1,,,0,0,0.820125,0,76,76,8,1,REAL,FALSA
,,,,,,,5ece7b97ba09f5253c4c0238,001,2020-10-29_19h20.15.928,lextale_sp,2020.2.3,Win32,60,,,,,,,,,83,guante,1,,,0,0,4.69061,0,77,77,82,1,REAL,FALSA
,,,,,,,5ece7b97ba09f5253c4c0238,001,2020-10-29_19h20.15.928,lextale_sp,2020.2.3,Win32,60,,,,,,,,,46,martillo,1,,,1,1,0.886335,0,78,78,45,1,REAL,FALSA
,,,,,,,5ece7b97ba09f5253c4c0238,001,2020-10-29_19h20.15.928,lextale_sp,2020.2.3,Win32,60,,,,,,,,,68,alegre,1,,,1,1,6.4661,0,79,79,67,1,REAL,FALSA
,,,,,,,5ece7b97ba09f5253c4c0238,001,2020-10-29_19h20.15.928,lextale_sp,2020.2.3,Win32,60,,,,,,,,,49,ganar,1,,,1,1,1.810175,0,80,80,48,1,REAL,FALSA
,,,,,,,5ece7b97ba09f5253c4c0238,001,2020-10-29_19h20.15.928,lextale_sp,2020.2.3,Win32,60,,,,,,,,,88,acantilado,1,,,0,0,1.86998,0,81,81,87,1,REAL,FALSA
,,,,,,,5ece7b97ba09f5253c4c0238,001,2020-10-29_19h20.15.928,lextale_sp,2020.2.3,Win32,60,,,,,,,,,51,candado,1,,,1,1,0.83538,0,82,82,50,1,REAL,FALSA
,,,,,,,5ece7b97ba09f5253c4c0238,001,2020-10-29_19h20.15.928,lextale_sp,2020.2.3,Win32,60,,,,,,,,,21,capillo,0,,,1,0,0.74361,0,83,83,20,1,REAL,FALSA
,,,,,,,5ece7b97ba09f5253c4c0238,001,2020-10-29_19h20.15.928,lextale_sp,2020.2.3,Win32,60,,,,,,,,,28,merodear,1,,,0,0,0.76285,0,84,84,27,1,REAL,FALSA
,,,,,,,5ece7b97ba09f5253c4c0238,001,2020-10-29_19h20.15.928,lextale_sp,2020.2.3,Win32,60,,,,,,,,,26,secuestro,1,,,1,1,0.69367,0,85,85,25,1,REAL,FALSA
,,,,,,,5ece7b97ba09f5253c4c0238,001,2020-10-29_19h20.15.928,lextale_sp,2020.2.3,Win32,60,,,,,,,,,31,pandilla,1,,,1,1,1.203965,0,86,86,30,1,REAL,FALSA
,,,,,,,5ece7b97ba09f5253c4c0238,001,2020-10-29_19h20.15.928,lextale_sp,2020.2.3,Win32,60,,,,,,,,,11,cenefa,1,,,0,0,0.65932,0,87,87,10,1,REAL,FALSA
,,,,,,,5ece7b97ba09f5253c4c0238,001,2020-10-29_19h20.15.928,lextale_sp,2020.2.3,Win32,60,,,,,,,,,57,tacaño,1,,,1,1,0.778055,0,88,88,56,1,REAL,FALSA
,,,,,,,5ece7b97ba09f5253c4c0238,001,2020-10-29_19h20.15.928,lextale_sp,2020.2.3,Win32,60,,,,,,,,,64,orgulloso,1,,,1,1,0.7081,0,89,89,63,1,REAL,FALSA
