lextale_instructions_loop.thisRepN,lextale_instructions_loop.thisTrialN,lextale_instructions_loop.thisN,lextale_instructions_loop.thisIndex,lextale_instructions_loop.ran,instructions_text,continue_text,participant,session,date,expName,psychopyVersion,OS,frameRate,key_resp_lextale_practice.keys,key_resp_lextale_practice.corr,key_resp_lextale_practice.rt,lextale_practice_trials.thisRepN,lextale_practice_trials.thisTrialN,lextale_practice_trials.thisN,lextale_practice_trials.thisIndex,lextale_practice_trials.ran,stim,word,correct_response,prac_button_real,prac_button_false,key_resp_lextale_trial.keys,key_resp_lextale_trial.corr,key_resp_lextale_trial.rt,lextail_trials.thisRepN,lextail_trials.thisTrialN,lextail_trials.thisN,lextail_trials.thisIndex,lextail_trials.ran,button_real,button_false
0,0,0,0,1,"Este es un test de vocabulario en español. 
  
  A continuación vas a ver 90 secuencias de letras que parecen 'españolas'.
  
  Solo algunas de ellas son palabras de verdad.",(presiona la barra espaciadora para continuar),5ece7b97ba09f5253c4c0238,001,2020-10-29_14h19.44.067,lextale_sp,2020.2.3,Win32,60,,,,,,,,,,,,,,,,,,,,,,,
0,1,1,1,1,"Por favor, señala las palabras que tú conoces (aquellas que estás convencido que son palabras españolas, incluso aunque no seas capaz de dar el significado preciso).",(presiona la barra espaciadora para continuar),5ece7b97ba09f5253c4c0238,001,2020-10-29_14h19.44.067,lextale_sp,2020.2.3,Win32,60,,,,,,,,,,,,,,,,,,,,,,,
0,2,2,2,1,Pero cuidado: los errores se penalizan. Por eso no tiene sentido tratar de incrementar tu puntuación marcando como reales palabras que nunca has visto.,(presiona la barra espaciadora para continuar),5ece7b97ba09f5253c4c0238,001,2020-10-29_14h19.44.067,lextale_sp,2020.2.3,Win32,60,,,,,,,,,,,,,,,,,,,,,,,
0,3,3,3,1,"Presiona la tecla 1 si piensas que es una palabra real y la tecla 
  0 si piensas que es una palabra falsa. 
  
  Vamos a practicar un poco...",(presiona la barra espaciadora para continuar),5ece7b97ba09f5253c4c0238,001,2020-10-29_14h19.44.067,lextale_sp,2020.2.3,Win32,60,,,,,,,,,,,,,,,,,,,,,,,
,,,,,,,5ece7b97ba09f5253c4c0238,001,2020-10-29_14h19.44.067,lextale_sp,2020.2.3,Win32,60,1,0,2.15461,0,0,0,0,1,0,depiste,0,REAL,FALSA,,,,,,,,,,
,,,,,,,5ece7b97ba09f5253c4c0238,001,2020-10-29_14h19.44.067,lextale_sp,2020.2.3,Win32,60,1,1,1.907085,0,1,1,1,1,0,sí,1,REAL,FALSA,,,,,,,,,,
,,,,,,,5ece7b97ba09f5253c4c0238,001,2020-10-29_14h19.44.067,lextale_sp,2020.2.3,Win32,60,0,1,3.342255,0,2,2,2,1,0,coné,0,REAL,FALSA,,,,,,,,,,
,,,,,,,5ece7b97ba09f5253c4c0238,001,2020-10-29_14h19.44.067,lextale_sp,2020.2.3,Win32,60,0,1,1.4132,0,3,3,3,1,0,calpar,0,REAL,FALSA,,,,,,,,,,
,,,,,,,5ece7b97ba09f5253c4c0238,001,2020-10-29_14h19.44.067,lextale_sp,2020.2.3,Win32,60,0,1,1.09244,0,4,4,4,1,0,joten,0,REAL,FALSA,,,,,,,,,,
,,,,,,,5ece7b97ba09f5253c4c0238,001,2020-10-29_14h19.44.067,lextale_sp,2020.2.3,Win32,60,1,1,1.304305,0,5,5,5,1,0,sacapuntas,1,REAL,FALSA,,,,,,,,,,
,,,,,,,5ece7b97ba09f5253c4c0238,001,2020-10-29_14h19.44.067,lextale_sp,2020.2.3,Win32,60,0,1,1.32423,0,6,6,6,1,0,priba,0,REAL,FALSA,,,,,,,,,,
,,,,,,,5ece7b97ba09f5253c4c0238,001,2020-10-29_14h19.44.067,lextale_sp,2020.2.3,Win32,60,0,1,1.98235,0,7,7,7,1,0,pelasula,0,REAL,FALSA,,,,,,,,,,
,,,,,,,5ece7b97ba09f5253c4c0238,001,2020-10-29_14h19.44.067,lextale_sp,2020.2.3,Win32,60,1,1,0.75795,0,8,8,8,1,0,bien,1,REAL,FALSA,,,,,,,,,,
,,,,,,,5ece7b97ba09f5253c4c0238,001,2020-10-29_14h19.44.067,lextale_sp,2020.2.3,Win32,60,1,1,0.751725,0,9,9,9,1,0,casa,1,REAL,FALSA,,,,,,,,,,
,,,,,,,5ece7b97ba09f5253c4c0238,001,2020-10-29_14h19.44.067,lextale_sp,2020.2.3,Win32,60,1,0,1.27087,0,10,10,10,1,0,lejo,0,REAL,FALSA,,,,,,,,,,
,,,,,,,5ece7b97ba09f5253c4c0238,001,2020-10-29_14h19.44.067,lextale_sp,2020.2.3,Win32,60,0,1,2.00585,0,11,11,11,1,0,pretantas,0,REAL,FALSA,,,,,,,,,,
,,,,,,,5ece7b97ba09f5253c4c0238,001,2020-10-29_14h19.44.067,lextale_sp,2020.2.3,Win32,60,,,,,,,,,74,cintro,0,,,0,1,1.78917,0,0,0,73,1,REAL,FALSA
,,,,,,,5ece7b97ba09f5253c4c0238,001,2020-10-29_14h19.44.067,lextale_sp,2020.2.3,Win32,60,,,,,,,,,90,clavel,1,,,1,1,1.50913,0,1,1,89,1,REAL,FALSA
,,,,,,,5ece7b97ba09f5253c4c0238,001,2020-10-29_14h19.44.067,lextale_sp,2020.2.3,Win32,60,,,,,,,,,44,cuchara,1,,,1,1,1.04113,0,2,2,43,1,REAL,FALSA
,,,,,,,5ece7b97ba09f5253c4c0238,001,2020-10-29_14h19.44.067,lextale_sp,2020.2.3,Win32,60,,,,,,,,,75,yacer,1,,,0,0,1.048965,0,3,3,74,1,REAL,FALSA
,,,,,,,5ece7b97ba09f5253c4c0238,001,2020-10-29_14h19.44.067,lextale_sp,2020.2.3,Win32,60,,,,,,,,,31,pandilla,1,,,1,1,1.34407,0,4,4,30,1,REAL,FALSA
,,,,,,,5ece7b97ba09f5253c4c0238,001,2020-10-29_14h19.44.067,lextale_sp,2020.2.3,Win32,60,,,,,,,,,61,seda,1,,,1,1,1.886815,0,5,5,60,1,REAL,FALSA
,,,,,,,5ece7b97ba09f5253c4c0238,001,2020-10-29_14h19.44.067,lextale_sp,2020.2.3,Win32,60,,,,,,,,,34,aviso,1,,,1,1,0.96979,0,6,6,33,1,REAL,FALSA
,,,,,,,5ece7b97ba09f5253c4c0238,001,2020-10-29_14h19.44.067,lextale_sp,2020.2.3,Win32,60,,,,,,,,,57,tacaño,1,,,1,1,2.008605,0,7,7,56,1,REAL,FALSA
,,,,,,,5ece7b97ba09f5253c4c0238,001,2020-10-29_14h19.44.067,lextale_sp,2020.2.3,Win32,60,,,,,,,,,2,pellizcar,1,,,0,0,1.12186,0,8,8,1,1,REAL,FALSA
,,,,,,,5ece7b97ba09f5253c4c0238,001,2020-10-29_14h19.44.067,lextale_sp,2020.2.3,Win32,60,,,,,,,,,88,acantilado,1,,,0,0,3.36532,0,9,9,87,1,REAL,FALSA
,,,,,,,5ece7b97ba09f5253c4c0238,001,2020-10-29_14h19.44.067,lextale_sp,2020.2.3,Win32,60,,,,,,,,,79,tropaje,0,,,0,1,1.24533,0,10,10,78,1,REAL,FALSA
,,,,,,,5ece7b97ba09f5253c4c0238,001,2020-10-29_14h19.44.067,lextale_sp,2020.2.3,Win32,60,,,,,,,,,14,yunque,1,,,0,0,1.053595,0,11,11,13,1,REAL,FALSA
,,,,,,,5ece7b97ba09f5253c4c0238,001,2020-10-29_14h19.44.067,lextale_sp,2020.2.3,Win32,60,,,,,,,,,76,atar,1,,,1,1,1.29927,0,12,12,75,1,REAL,FALSA
,,,,,,,5ece7b97ba09f5253c4c0238,001,2020-10-29_14h19.44.067,lextale_sp,2020.2.3,Win32,60,,,,,,,,,39,torpe,1,,,1,1,1.127545,0,13,13,38,1,REAL,FALSA
,,,,,,,5ece7b97ba09f5253c4c0238,001,2020-10-29_14h19.44.067,lextale_sp,2020.2.3,Win32,60,,,,,,,,,64,orgulloso,1,,,1,1,0.81996,0,14,14,63,1,REAL,FALSA
,,,,,,,5ece7b97ba09f5253c4c0238,001,2020-10-29_14h19.44.067,lextale_sp,2020.2.3,Win32,60,,,,,,,,,24,látigo,1,,,1,1,3.02707,0,15,15,23,1,REAL,FALSA
,,,,,,,5ece7b97ba09f5253c4c0238,001,2020-10-29_14h19.44.067,lextale_sp,2020.2.3,Win32,60,,,,,,,,,15,regar,1,,,0,0,1.297975,0,16,16,14,1,REAL,FALSA
,,,,,,,5ece7b97ba09f5253c4c0238,001,2020-10-29_14h19.44.067,lextale_sp,2020.2.3,Win32,60,,,,,,,,,82,empirador,0,,,0,1,2.14186,0,17,17,81,1,REAL,FALSA
,,,,,,,5ece7b97ba09f5253c4c0238,001,2020-10-29_14h19.44.067,lextale_sp,2020.2.3,Win32,60,,,,,,,,,27,acutación,0,,,0,1,1.65481,0,18,18,26,1,REAL,FALSA
,,,,,,,5ece7b97ba09f5253c4c0238,001,2020-10-29_14h19.44.067,lextale_sp,2020.2.3,Win32,60,,,,,,,,,36,loro,1,,,0,0,4.94249,0,19,19,35,1,REAL,FALSA
,,,,,,,5ece7b97ba09f5253c4c0238,001,2020-10-29_14h19.44.067,lextale_sp,2020.2.3,Win32,60,,,,,,,,,59,besar,1,,,1,1,0.75679,0,20,20,58,1,REAL,FALSA
,,,,,,,5ece7b97ba09f5253c4c0238,001,2020-10-29_14h19.44.067,lextale_sp,2020.2.3,Win32,60,,,,,,,,,48,ladrón,1,,,1,1,1.05547,0,21,21,47,1,REAL,FALSA
,,,,,,,5ece7b97ba09f5253c4c0238,001,2020-10-29_14h19.44.067,lextale_sp,2020.2.3,Win32,60,,,,,,,,,45,jilguero,1,,,0,0,2.573925,0,22,22,44,1,REAL,FALSA
,,,,,,,5ece7b97ba09f5253c4c0238,001,2020-10-29_14h19.44.067,lextale_sp,2020.2.3,Win32,60,,,,,,,,,29,decar,0,,,0,1,1.421965,0,23,23,28,1,REAL,FALSA
,,,,,,,5ece7b97ba09f5253c4c0238,001,2020-10-29_14h19.44.067,lextale_sp,2020.2.3,Win32,60,,,,,,,,,11,cenefa,1,,,0,0,1.30947,0,24,24,10,1,REAL,FALSA
,,,,,,,5ece7b97ba09f5253c4c0238,001,2020-10-29_14h19.44.067,lextale_sp,2020.2.3,Win32,60,,,,,,,,,7,pésimo,1,,,1,1,1.28627,0,25,25,6,1,REAL,FALSA
,,,,,,,5ece7b97ba09f5253c4c0238,001,2020-10-29_14h19.44.067,lextale_sp,2020.2.3,Win32,60,,,,,,,,,42,cadallo,0,,,0,1,0.88716,0,26,26,41,1,REAL,FALSA
,,,,,,,5ece7b97ba09f5253c4c0238,001,2020-10-29_14h19.44.067,lextale_sp,2020.2.3,Win32,60,,,,,,,,,16,abracer,0,,,0,1,2.428435,0,27,27,15,1,REAL,FALSA
,,,,,,,5ece7b97ba09f5253c4c0238,001,2020-10-29_14h19.44.067,lextale_sp,2020.2.3,Win32,60,,,,,,,,,5,zapato,1,,,1,1,1.578575,0,28,28,4,1,REAL,FALSA
,,,,,,,5ece7b97ba09f5253c4c0238,001,2020-10-29_14h19.44.067,lextale_sp,2020.2.3,Win32,60,,,,,,,,,17,floroso,0,,,0,1,1.23677,0,29,29,16,1,REAL,FALSA
,,,,,,,5ece7b97ba09f5253c4c0238,001,2020-10-29_14h19.44.067,lextale_sp,2020.2.3,Win32,60,,,,,,,,,41,rebuscar,1,,,1,1,1.19533,0,30,30,40,1,REAL,FALSA
,,,,,,,5ece7b97ba09f5253c4c0238,001,2020-10-29_14h19.44.067,lextale_sp,2020.2.3,Win32,60,,,,,,,,,84,escuto,0,,,0,1,1.90783,0,31,31,83,1,REAL,FALSA
,,,,,,,5ece7b97ba09f5253c4c0238,001,2020-10-29_14h19.44.067,lextale_sp,2020.2.3,Win32,60,,,,,,,,,53,vegada,0,,,0,1,0.952945,0,32,32,52,1,REAL,FALSA
,,,,,,,5ece7b97ba09f5253c4c0238,001,2020-10-29_14h19.44.067,lextale_sp,2020.2.3,Win32,60,,,,,,,,,78,frondoso,1,,,0,0,1.26907,0,33,33,77,1,REAL,FALSA
,,,,,,,5ece7b97ba09f5253c4c0238,001,2020-10-29_14h19.44.067,lextale_sp,2020.2.3,Win32,60,,,,,,,,,60,matar,1,,,1,1,0.63984,0,34,34,59,1,REAL,FALSA
,,,,,,,5ece7b97ba09f5253c4c0238,001,2020-10-29_14h19.44.067,lextale_sp,2020.2.3,Win32,60,,,,,,,,,70,temblo,0,,,0,1,2.27155,0,35,35,69,1,REAL,FALSA
,,,,,,,5ece7b97ba09f5253c4c0238,001,2020-10-29_14h19.44.067,lextale_sp,2020.2.3,Win32,60,,,,,,,,,65,bizcocho,1,,,1,1,0.653225,0,36,36,64,1,REAL,FALSA
,,,,,,,5ece7b97ba09f5253c4c0238,001,2020-10-29_14h19.44.067,lextale_sp,2020.2.3,Win32,60,,,,,,,,,6,tergiversar,1,,,0,0,1.26998,0,37,37,5,1,REAL,FALSA
,,,,,,,5ece7b97ba09f5253c4c0238,001,2020-10-29_14h19.44.067,lextale_sp,2020.2.3,Win32,60,,,,,,,,,23,lampera,0,,,1,0,0.70409,0,38,38,22,1,REAL,FALSA
,,,,,,,5ece7b97ba09f5253c4c0238,001,2020-10-29_14h19.44.067,lextale_sp,2020.2.3,Win32,60,,,,,,,,,68,alegre,1,,,1,1,0.861175,0,39,39,67,1,REAL,FALSA
,,,,,,,5ece7b97ba09f5253c4c0238,001,2020-10-29_14h19.44.067,lextale_sp,2020.2.3,Win32,60,,,,,,,,,72,pemición,0,,,0,1,0.851575,0,40,40,71,1,REAL,FALSA
,,,,,,,5ece7b97ba09f5253c4c0238,001,2020-10-29_14h19.44.067,lextale_sp,2020.2.3,Win32,60,,,,,,,,,22,lacayo,1,,,0,0,1.35507,0,41,41,21,1,REAL,FALSA
,,,,,,,5ece7b97ba09f5253c4c0238,001,2020-10-29_14h19.44.067,lextale_sp,2020.2.3,Win32,60,,,,,,,,,47,cartinar,0,,,0,1,1.054015,0,42,42,46,1,REAL,FALSA
,,,,,,,5ece7b97ba09f5253c4c0238,001,2020-10-29_14h19.44.067,lextale_sp,2020.2.3,Win32,60,,,,,,,,,18,arsa,0,,,0,1,1.2536,0,43,43,17,1,REAL,FALSA
,,,,,,,5ece7b97ba09f5253c4c0238,001,2020-10-29_14h19.44.067,lextale_sp,2020.2.3,Win32,60,,,,,,,,,83,guante,1,,,0,0,1.15413,0,44,44,82,1,REAL,FALSA
,,,,,,,5ece7b97ba09f5253c4c0238,001,2020-10-29_14h19.44.067,lextale_sp,2020.2.3,Win32,60,,,,,,,,,71,polvoriento,1,,,0,0,0.923345,0,45,45,70,1,REAL,FALSA
,,,,,,,5ece7b97ba09f5253c4c0238,001,2020-10-29_14h19.44.067,lextale_sp,2020.2.3,Win32,60,,,,,,,,,52,camisa,1,,,1,1,0.695755,0,46,46,51,1,REAL,FALSA
,,,,,,,5ece7b97ba09f5253c4c0238,001,2020-10-29_14h19.44.067,lextale_sp,2020.2.3,Win32,60,,,,,,,,,87,grodo,0,,,0,1,0.768745,0,47,47,86,1,REAL,FALSA
,,,,,,,5ece7b97ba09f5253c4c0238,001,2020-10-29_14h19.44.067,lextale_sp,2020.2.3,Win32,60,,,,,,,,,3,pulmones,1,,,1,1,0.84654,0,48,48,2,1,REAL,FALSA
,,,,,,,5ece7b97ba09f5253c4c0238,001,2020-10-29_14h19.44.067,lextale_sp,2020.2.3,Win32,60,,,,,,,,,80,hormiga,1,,,1,1,0.82318,0,49,49,79,1,REAL,FALSA
,,,,,,,5ece7b97ba09f5253c4c0238,001,2020-10-29_14h19.44.067,lextale_sp,2020.2.3,Win32,60,,,,,,,,,56,musgo,1,,,0,0,0.82022,0,50,50,55,1,REAL,FALSA
,,,,,,,5ece7b97ba09f5253c4c0238,001,2020-10-29_14h19.44.067,lextale_sp,2020.2.3,Win32,60,,,,,,,,,35,rompido,0,,,0,1,2.83974,0,51,51,34,1,REAL,FALSA
,,,,,,,5ece7b97ba09f5253c4c0238,001,2020-10-29_14h19.44.067,lextale_sp,2020.2.3,Win32,60,,,,,,,,,67,cabello,1,,,1,1,0.660335,0,52,52,66,1,REAL,FALSA
,,,,,,,5ece7b97ba09f5253c4c0238,001,2020-10-29_14h19.44.067,lextale_sp,2020.2.3,Win32,60,,,,,,,,,13,helar,1,,,1,1,1.25916,0,53,53,12,1,REAL,FALSA
,,,,,,,5ece7b97ba09f5253c4c0238,001,2020-10-29_14h19.44.067,lextale_sp,2020.2.3,Win32,60,,,,,,,,,25,bisagra,1,,,0,0,1.42061,0,54,54,24,1,REAL,FALSA
,,,,,,,5ece7b97ba09f5253c4c0238,001,2020-10-29_14h19.44.067,lextale_sp,2020.2.3,Win32,60,,,,,,,,,40,alfombra,1,,,1,1,0.70492,0,55,55,39,1,REAL,FALSA
,,,,,,,5ece7b97ba09f5253c4c0238,001,2020-10-29_14h19.44.067,lextale_sp,2020.2.3,Win32,60,,,,,,,,,86,barato,1,,,1,1,0.725545,0,56,56,85,1,REAL,FALSA
,,,,,,,5ece7b97ba09f5253c4c0238,001,2020-10-29_14h19.44.067,lextale_sp,2020.2.3,Win32,60,,,,,,,,,49,ganar,1,,,1,1,0.609695,0,57,57,48,1,REAL,FALSA
,,,,,,,5ece7b97ba09f5253c4c0238,001,2020-10-29_14h19.44.067,lextale_sp,2020.2.3,Win32,60,,,,,,,,,85,laúd,1,,,0,0,0.852815,0,58,58,84,1,REAL,FALSA
,,,,,,,5ece7b97ba09f5253c4c0238,001,2020-10-29_14h19.44.067,lextale_sp,2020.2.3,Win32,60,,,,,,,,,33,pauca,0,,,0,1,1.361165,0,59,59,32,1,REAL,FALSA
,,,,,,,5ece7b97ba09f5253c4c0238,001,2020-10-29_14h19.44.067,lextale_sp,2020.2.3,Win32,60,,,,,,,,,58,plaudir,0,,,0,1,1.211255,0,60,60,57,1,REAL,FALSA
,,,,,,,5ece7b97ba09f5253c4c0238,001,2020-10-29_14h19.44.067,lextale_sp,2020.2.3,Win32,60,,,,,,,,,30,alardio,0,,,0,1,0.947645,0,61,61,29,1,REAL,FALSA
,,,,,,,5ece7b97ba09f5253c4c0238,001,2020-10-29_14h19.44.067,lextale_sp,2020.2.3,Win32,60,,,,,,,,,81,pozo,1,,,1,1,2.53799,0,62,62,80,1,REAL,FALSA
,,,,,,,5ece7b97ba09f5253c4c0238,001,2020-10-29_14h19.44.067,lextale_sp,2020.2.3,Win32,60,,,,,,,,,66,hacido,0,,,1,0,0.72817,0,63,63,65,1,REAL,FALSA
,,,,,,,5ece7b97ba09f5253c4c0238,001,2020-10-29_14h19.44.067,lextale_sp,2020.2.3,Win32,60,,,,,,,,,50,flamida,0,,,0,1,1.53715,0,64,64,49,1,REAL,FALSA
,,,,,,,5ece7b97ba09f5253c4c0238,001,2020-10-29_14h19.44.067,lextale_sp,2020.2.3,Win32,60,,,,,,,,,19,brecedad,0,,,0,1,2.390725,0,65,65,18,1,REAL,FALSA
,,,,,,,5ece7b97ba09f5253c4c0238,001,2020-10-29_14h19.44.067,lextale_sp,2020.2.3,Win32,60,,,,,,,,,62,flaco,1,,,1,1,0.815255,0,66,66,61,1,REAL,FALSA
,,,,,,,5ece7b97ba09f5253c4c0238,001,2020-10-29_14h19.44.067,lextale_sp,2020.2.3,Win32,60,,,,,,,,,4,batillón,0,,,1,0,0.552685,0,67,67,3,1,REAL,FALSA
,,,,,,,5ece7b97ba09f5253c4c0238,001,2020-10-29_14h19.44.067,lextale_sp,2020.2.3,Win32,60,,,,,,,,,9,hacha,1,,,0,0,0.906005,0,68,68,8,1,REAL,FALSA
,,,,,,,5ece7b97ba09f5253c4c0238,001,2020-10-29_14h19.44.067,lextale_sp,2020.2.3,Win32,60,,,,,,,,,26,secuestro,1,,,1,1,0.78589,0,69,69,25,1,REAL,FALSA
,,,,,,,5ece7b97ba09f5253c4c0238,001,2020-10-29_14h19.44.067,lextale_sp,2020.2.3,Win32,60,,,,,,,,,37,granuja,1,,,0,0,0.919995,0,70,70,36,1,REAL,FALSA
,,,,,,,5ece7b97ba09f5253c4c0238,001,2020-10-29_14h19.44.067,lextale_sp,2020.2.3,Win32,60,,,,,,,,,54,fomentar,1,,,1,1,2.925265,0,71,71,53,1,REAL,FALSA
,,,,,,,5ece7b97ba09f5253c4c0238,001,2020-10-29_14h19.44.067,lextale_sp,2020.2.3,Win32,60,,,,,,,,,38,estornudar,1,,,1,1,0.83134,0,72,72,37,1,REAL,FALSA
,,,,,,,5ece7b97ba09f5253c4c0238,001,2020-10-29_14h19.44.067,lextale_sp,2020.2.3,Win32,60,,,,,,,,,77,tiburón,1,,,1,1,0.870885,0,73,73,76,1,REAL,FALSA
,,,,,,,5ece7b97ba09f5253c4c0238,001,2020-10-29_14h19.44.067,lextale_sp,2020.2.3,Win32,60,,,,,,,,,46,martillo,1,,,1,1,0.740625,0,74,74,45,1,REAL,FALSA
,,,,,,,5ece7b97ba09f5253c4c0238,001,2020-10-29_14h19.44.067,lextale_sp,2020.2.3,Win32,60,,,,,,,,,89,prisa,1,,,1,1,0.6717,0,75,75,88,1,REAL,FALSA
,,,,,,,5ece7b97ba09f5253c4c0238,001,2020-10-29_14h19.44.067,lextale_sp,2020.2.3,Win32,60,,,,,,,,,8,cadeña,0,,,1,0,0.60574,0,76,76,7,1,REAL,FALSA
,,,,,,,5ece7b97ba09f5253c4c0238,001,2020-10-29_14h19.44.067,lextale_sp,2020.2.3,Win32,60,,,,,,,,,10,antar,0,,,1,0,0.60663,0,77,77,9,1,REAL,FALSA
,,,,,,,5ece7b97ba09f5253c4c0238,001,2020-10-29_14h19.44.067,lextale_sp,2020.2.3,Win32,60,,,,,,,,,20,ávido,1,,,1,1,1.655445,0,78,78,19,1,REAL,FALSA
,,,,,,,5ece7b97ba09f5253c4c0238,001,2020-10-29_14h19.44.067,lextale_sp,2020.2.3,Win32,60,,,,,,,,,12,asesinato,1,,,1,1,1.95785,0,79,79,11,1,REAL,FALSA
,,,,,,,5ece7b97ba09f5253c4c0238,001,2020-10-29_14h19.44.067,lextale_sp,2020.2.3,Win32,60,,,,,,,,,32,fatacidad,0,,,0,1,1.52029,0,80,80,31,1,REAL,FALSA
,,,,,,,5ece7b97ba09f5253c4c0238,001,2020-10-29_14h19.44.067,lextale_sp,2020.2.3,Win32,60,,,,,,,,,43,canela,1,,,1,1,0.626035,0,81,81,42,1,REAL,FALSA
,,,,,,,5ece7b97ba09f5253c4c0238,001,2020-10-29_14h19.44.067,lextale_sp,2020.2.3,Win32,60,,,,,,,,,28,merodear,1,,,0,0,1.290115,0,82,82,27,1,REAL,FALSA
,,,,,,,5ece7b97ba09f5253c4c0238,001,2020-10-29_14h19.44.067,lextale_sp,2020.2.3,Win32,60,,,,,,,,,21,capillo,0,,,1,0,0.9204,0,83,83,20,1,REAL,FALSA
,,,,,,,5ece7b97ba09f5253c4c0238,001,2020-10-29_14h19.44.067,lextale_sp,2020.2.3,Win32,60,,,,,,,,,69,engatusar,1,,,0,0,0.87492,0,84,84,68,1,REAL,FALSA
,,,,,,,5ece7b97ba09f5253c4c0238,001,2020-10-29_14h19.44.067,lextale_sp,2020.2.3,Win32,60,,,,,,,,,55,nevar,1,,,1,1,0.888115,0,85,85,54,1,REAL,FALSA
,,,,,,,5ece7b97ba09f5253c4c0238,001,2020-10-29_14h19.44.067,lextale_sp,2020.2.3,Win32,60,,,,,,,,,51,candado,1,,,0,0,1.79069,0,86,86,50,1,REAL,FALSA
,,,,,,,5ece7b97ba09f5253c4c0238,001,2020-10-29_14h19.44.067,lextale_sp,2020.2.3,Win32,60,,,,,,,,,73,hervidor,1,,,1,1,0.97447,0,87,87,72,1,REAL,FALSA
,,,,,,,5ece7b97ba09f5253c4c0238,001,2020-10-29_14h19.44.067,lextale_sp,2020.2.3,Win32,60,,,,,,,,,1,terzo,0,,,1,0,0.66483,0,88,88,0,1,REAL,FALSA
,,,,,,,5ece7b97ba09f5253c4c0238,001,2020-10-29_14h19.44.067,lextale_sp,2020.2.3,Win32,60,,,,,,,,,63,esposante,0,,,1,0,0.83908,0,89,89,62,1,REAL,FALSA
