lextale_instructions_loop.thisRepN,lextale_instructions_loop.thisTrialN,lextale_instructions_loop.thisN,lextale_instructions_loop.thisIndex,lextale_instructions_loop.ran,instructions_text,continue_text,participant,session,date,expName,psychopyVersion,OS,frameRate,key_resp_lextale_practice.keys,key_resp_lextale_practice.corr,key_resp_lextale_practice.rt,lextale_practice_trials.thisRepN,lextale_practice_trials.thisTrialN,lextale_practice_trials.thisN,lextale_practice_trials.thisIndex,lextale_practice_trials.ran,stim,word,correct_response,prac_button_real,prac_button_false,key_resp_lextale_trial.keys,key_resp_lextale_trial.corr,key_resp_lextale_trial.rt,lextail_trials.thisRepN,lextail_trials.thisTrialN,lextail_trials.thisN,lextail_trials.thisIndex,lextail_trials.ran,button_real,button_false
0,0,0,0,1,"Este es un test de vocabulario en español. 
  
  A continuación vas a ver 90 secuencias de letras que parecen 'españolas'.
  
  Solo algunas de ellas son palabras de verdad.",(presiona la barra espaciadora para continuar),5f022d91a43ac63b4a27c050,001,2020-10-27_17h52.37.244,lextale_sp,2020.2.3,Win32,60,,,,,,,,,,,,,,,,,,,,,,,
0,1,1,1,1,"Por favor, señala las palabras que tú conoces (aquellas que estás convencido que son palabras españolas, incluso aunque no seas capaz de dar el significado preciso).",(presiona la barra espaciadora para continuar),5f022d91a43ac63b4a27c050,001,2020-10-27_17h52.37.244,lextale_sp,2020.2.3,Win32,60,,,,,,,,,,,,,,,,,,,,,,,
0,2,2,2,1,Pero cuidado: los errores se penalizan. Por eso no tiene sentido tratar de incrementar tu puntuación marcando como reales palabras que nunca has visto.,(presiona la barra espaciadora para continuar),5f022d91a43ac63b4a27c050,001,2020-10-27_17h52.37.244,lextale_sp,2020.2.3,Win32,60,,,,,,,,,,,,,,,,,,,,,,,
0,3,3,3,1,"Presiona la tecla 1 si piensas que es una palabra real y la tecla 
  0 si piensas que es una palabra falsa. 
  
  Vamos a practicar un poco...",(presiona la barra espaciadora para continuar),5f022d91a43ac63b4a27c050,001,2020-10-27_17h52.37.244,lextale_sp,2020.2.3,Win32,60,,,,,,,,,,,,,,,,,,,,,,,
,,,,,,,5f022d91a43ac63b4a27c050,001,2020-10-27_17h52.37.244,lextale_sp,2020.2.3,Win32,60,0,1,2.20639,0,0,0,0,1,0,depiste,0,REAL,FALSA,,,,,,,,,,
,,,,,,,5f022d91a43ac63b4a27c050,001,2020-10-27_17h52.37.244,lextale_sp,2020.2.3,Win32,60,1,1,1.21733,0,1,1,1,1,0,sí,1,REAL,FALSA,,,,,,,,,,
,,,,,,,5f022d91a43ac63b4a27c050,001,2020-10-27_17h52.37.244,lextale_sp,2020.2.3,Win32,60,0,1,0.825245,0,2,2,2,1,0,coné,0,REAL,FALSA,,,,,,,,,,
,,,,,,,5f022d91a43ac63b4a27c050,001,2020-10-27_17h52.37.244,lextale_sp,2020.2.3,Win32,60,0,1,1.168255,0,3,3,3,1,0,calpar,0,REAL,FALSA,,,,,,,,,,
,,,,,,,5f022d91a43ac63b4a27c050,001,2020-10-27_17h52.37.244,lextale_sp,2020.2.3,Win32,60,0,1,1.431985,0,4,4,4,1,0,joten,0,REAL,FALSA,,,,,,,,,,
,,,,,,,5f022d91a43ac63b4a27c050,001,2020-10-27_17h52.37.244,lextale_sp,2020.2.3,Win32,60,0,0,0.757785,0,5,5,5,1,0,sacapuntas,1,REAL,FALSA,,,,,,,,,,
,,,,,,,5f022d91a43ac63b4a27c050,001,2020-10-27_17h52.37.244,lextale_sp,2020.2.3,Win32,60,0,1,0.94807,0,6,6,6,1,0,priba,0,REAL,FALSA,,,,,,,,,,
,,,,,,,5f022d91a43ac63b4a27c050,001,2020-10-27_17h52.37.244,lextale_sp,2020.2.3,Win32,60,0,1,0.82241,0,7,7,7,1,0,pelasula,0,REAL,FALSA,,,,,,,,,,
,,,,,,,5f022d91a43ac63b4a27c050,001,2020-10-27_17h52.37.244,lextale_sp,2020.2.3,Win32,60,1,1,0.646945,0,8,8,8,1,0,bien,1,REAL,FALSA,,,,,,,,,,
,,,,,,,5f022d91a43ac63b4a27c050,001,2020-10-27_17h52.37.244,lextale_sp,2020.2.3,Win32,60,1,1,0.647045,0,9,9,9,1,0,casa,1,REAL,FALSA,,,,,,,,,,
,,,,,,,5f022d91a43ac63b4a27c050,001,2020-10-27_17h52.37.244,lextale_sp,2020.2.3,Win32,60,1,0,0.657365,0,10,10,10,1,0,lejo,0,REAL,FALSA,,,,,,,,,,
,,,,,,,5f022d91a43ac63b4a27c050,001,2020-10-27_17h52.37.244,lextale_sp,2020.2.3,Win32,60,0,1,0.782495,0,11,11,11,1,0,pretantas,0,REAL,FALSA,,,,,,,,,,
,,,,,,,5f022d91a43ac63b4a27c050,001,2020-10-27_17h52.37.244,lextale_sp,2020.2.3,Win32,60,,,,,,,,,42,cadallo,0,,,0,1,3.579125,0,0,0,41,1,REAL,FALSA
,,,,,,,5f022d91a43ac63b4a27c050,001,2020-10-27_17h52.37.244,lextale_sp,2020.2.3,Win32,60,,,,,,,,,22,lacayo,1,,,0,0,2.36971,0,1,1,21,1,REAL,FALSA
,,,,,,,5f022d91a43ac63b4a27c050,001,2020-10-27_17h52.37.244,lextale_sp,2020.2.3,Win32,60,,,,,,,,,33,pauca,0,,,0,1,0.96088,0,2,2,32,1,REAL,FALSA
,,,,,,,5f022d91a43ac63b4a27c050,001,2020-10-27_17h52.37.244,lextale_sp,2020.2.3,Win32,60,,,,,,,,,66,hacido,0,,,0,1,1.928075,0,3,3,65,1,REAL,FALSA
,,,,,,,5f022d91a43ac63b4a27c050,001,2020-10-27_17h52.37.244,lextale_sp,2020.2.3,Win32,60,,,,,,,,,32,fatacidad,0,,,0,1,0.87406,0,4,4,31,1,REAL,FALSA
,,,,,,,5f022d91a43ac63b4a27c050,001,2020-10-27_17h52.37.244,lextale_sp,2020.2.3,Win32,60,,,,,,,,,57,tacaño,1,,,0,0,1.236225,0,5,5,56,1,REAL,FALSA
,,,,,,,5f022d91a43ac63b4a27c050,001,2020-10-27_17h52.37.244,lextale_sp,2020.2.3,Win32,60,,,,,,,,,31,pandilla,1,,,1,1,1.452045,0,6,6,30,1,REAL,FALSA
,,,,,,,5f022d91a43ac63b4a27c050,001,2020-10-27_17h52.37.244,lextale_sp,2020.2.3,Win32,60,,,,,,,,,55,nevar,1,,,1,1,0.96892,0,7,7,54,1,REAL,FALSA
,,,,,,,5f022d91a43ac63b4a27c050,001,2020-10-27_17h52.37.244,lextale_sp,2020.2.3,Win32,60,,,,,,,,,87,grodo,0,,,0,1,0.640645,0,8,8,86,1,REAL,FALSA
,,,,,,,5f022d91a43ac63b4a27c050,001,2020-10-27_17h52.37.244,lextale_sp,2020.2.3,Win32,60,,,,,,,,,74,cintro,0,,,1,0,1.452065,0,9,9,73,1,REAL,FALSA
,,,,,,,5f022d91a43ac63b4a27c050,001,2020-10-27_17h52.37.244,lextale_sp,2020.2.3,Win32,60,,,,,,,,,78,frondoso,1,,,0,0,0.823955,0,10,10,77,1,REAL,FALSA
,,,,,,,5f022d91a43ac63b4a27c050,001,2020-10-27_17h52.37.244,lextale_sp,2020.2.3,Win32,60,,,,,,,,,13,helar,1,,,0,0,1.351965,0,11,11,12,1,REAL,FALSA
,,,,,,,5f022d91a43ac63b4a27c050,001,2020-10-27_17h52.37.244,lextale_sp,2020.2.3,Win32,60,,,,,,,,,43,canela,1,,,1,1,0.782545,0,12,12,42,1,REAL,FALSA
,,,,,,,5f022d91a43ac63b4a27c050,001,2020-10-27_17h52.37.244,lextale_sp,2020.2.3,Win32,60,,,,,,,,,39,torpe,1,,,1,1,0.80406,0,13,13,38,1,REAL,FALSA
,,,,,,,5f022d91a43ac63b4a27c050,001,2020-10-27_17h52.37.244,lextale_sp,2020.2.3,Win32,60,,,,,,,,,8,cadeña,0,,,1,0,1.65305,0,14,14,7,1,REAL,FALSA
,,,,,,,5f022d91a43ac63b4a27c050,001,2020-10-27_17h52.37.244,lextale_sp,2020.2.3,Win32,60,,,,,,,,,26,secuestro,1,,,1,1,0.933865,0,15,15,25,1,REAL,FALSA
,,,,,,,5f022d91a43ac63b4a27c050,001,2020-10-27_17h52.37.244,lextale_sp,2020.2.3,Win32,60,,,,,,,,,83,guante,1,,,1,1,1.422925,0,16,16,82,1,REAL,FALSA
,,,,,,,5f022d91a43ac63b4a27c050,001,2020-10-27_17h52.37.244,lextale_sp,2020.2.3,Win32,60,,,,,,,,,29,decar,0,,,0,1,1.73234,0,17,17,28,1,REAL,FALSA
,,,,,,,5f022d91a43ac63b4a27c050,001,2020-10-27_17h52.37.244,lextale_sp,2020.2.3,Win32,60,,,,,,,,,1,terzo,0,,,0,1,1.32722,0,18,18,0,1,REAL,FALSA
,,,,,,,5f022d91a43ac63b4a27c050,001,2020-10-27_17h52.37.244,lextale_sp,2020.2.3,Win32,60,,,,,,,,,23,lampera,0,,,0,1,1.34562,0,19,19,22,1,REAL,FALSA
,,,,,,,5f022d91a43ac63b4a27c050,001,2020-10-27_17h52.37.244,lextale_sp,2020.2.3,Win32,60,,,,,,,,,20,ávido,1,,,1,1,1.633135,0,20,20,19,1,REAL,FALSA
,,,,,,,5f022d91a43ac63b4a27c050,001,2020-10-27_17h52.37.244,lextale_sp,2020.2.3,Win32,60,,,,,,,,,68,alegre,1,,,1,1,0.68086,0,21,21,67,1,REAL,FALSA
,,,,,,,5f022d91a43ac63b4a27c050,001,2020-10-27_17h52.37.244,lextale_sp,2020.2.3,Win32,60,,,,,,,,,84,escuto,0,,,0,1,1.235125,0,22,22,83,1,REAL,FALSA
,,,,,,,5f022d91a43ac63b4a27c050,001,2020-10-27_17h52.37.244,lextale_sp,2020.2.3,Win32,60,,,,,,,,,72,pemición,0,,,1,0,0.839005,0,23,23,71,1,REAL,FALSA
,,,,,,,5f022d91a43ac63b4a27c050,001,2020-10-27_17h52.37.244,lextale_sp,2020.2.3,Win32,60,,,,,,,,,89,prisa,1,,,1,1,0.6936,0,24,24,88,1,REAL,FALSA
,,,,,,,5f022d91a43ac63b4a27c050,001,2020-10-27_17h52.37.244,lextale_sp,2020.2.3,Win32,60,,,,,,,,,6,tergiversar,1,,,0,0,1.634055,0,25,25,5,1,REAL,FALSA
,,,,,,,5f022d91a43ac63b4a27c050,001,2020-10-27_17h52.37.244,lextale_sp,2020.2.3,Win32,60,,,,,,,,,40,alfombra,1,,,1,1,0.71547,0,26,26,39,1,REAL,FALSA
,,,,,,,5f022d91a43ac63b4a27c050,001,2020-10-27_17h52.37.244,lextale_sp,2020.2.3,Win32,60,,,,,,,,,63,esposante,0,,,0,1,1.190885,0,27,27,62,1,REAL,FALSA
,,,,,,,5f022d91a43ac63b4a27c050,001,2020-10-27_17h52.37.244,lextale_sp,2020.2.3,Win32,60,,,,,,,,,30,alardio,0,,,0,1,0.969085,0,28,28,29,1,REAL,FALSA
,,,,,,,5f022d91a43ac63b4a27c050,001,2020-10-27_17h52.37.244,lextale_sp,2020.2.3,Win32,60,,,,,,,,,2,pellizcar,1,,,0,0,1.65597,0,29,29,1,1,REAL,FALSA
,,,,,,,5f022d91a43ac63b4a27c050,001,2020-10-27_17h52.37.244,lextale_sp,2020.2.3,Win32,60,,,,,,,,,12,asesinato,1,,,1,1,1.575675,0,30,30,11,1,REAL,FALSA
,,,,,,,5f022d91a43ac63b4a27c050,001,2020-10-27_17h52.37.244,lextale_sp,2020.2.3,Win32,60,,,,,,,,,35,rompido,0,,,1,0,0.870435,0,31,31,34,1,REAL,FALSA
,,,,,,,5f022d91a43ac63b4a27c050,001,2020-10-27_17h52.37.244,lextale_sp,2020.2.3,Win32,60,,,,,,,,,25,bisagra,1,,,0,0,0.78236,0,32,32,24,1,REAL,FALSA
,,,,,,,5f022d91a43ac63b4a27c050,001,2020-10-27_17h52.37.244,lextale_sp,2020.2.3,Win32,60,,,,,,,,,62,flaco,1,,,1,1,0.73794,0,33,33,61,1,REAL,FALSA
,,,,,,,5f022d91a43ac63b4a27c050,001,2020-10-27_17h52.37.244,lextale_sp,2020.2.3,Win32,60,,,,,,,,,58,plaudir,0,,,1,0,0.900495,0,34,34,57,1,REAL,FALSA
,,,,,,,5f022d91a43ac63b4a27c050,001,2020-10-27_17h52.37.244,lextale_sp,2020.2.3,Win32,60,,,,,,,,,28,merodear,1,,,0,0,0.831555,0,35,35,27,1,REAL,FALSA
,,,,,,,5f022d91a43ac63b4a27c050,001,2020-10-27_17h52.37.244,lextale_sp,2020.2.3,Win32,60,,,,,,,,,7,pésimo,1,,,1,1,1.06551,0,36,36,6,1,REAL,FALSA
,,,,,,,5f022d91a43ac63b4a27c050,001,2020-10-27_17h52.37.244,lextale_sp,2020.2.3,Win32,60,,,,,,,,,77,tiburón,1,,,1,1,0.78524,0,37,37,76,1,REAL,FALSA
,,,,,,,5f022d91a43ac63b4a27c050,001,2020-10-27_17h52.37.244,lextale_sp,2020.2.3,Win32,60,,,,,,,,,19,brecedad,0,,,0,1,0.78181,0,38,38,18,1,REAL,FALSA
,,,,,,,5f022d91a43ac63b4a27c050,001,2020-10-27_17h52.37.244,lextale_sp,2020.2.3,Win32,60,,,,,,,,,64,orgulloso,1,,,1,1,0.73773,0,39,39,63,1,REAL,FALSA
,,,,,,,5f022d91a43ac63b4a27c050,001,2020-10-27_17h52.37.244,lextale_sp,2020.2.3,Win32,60,,,,,,,,,80,hormiga,1,,,0,0,0.900815,0,40,40,79,1,REAL,FALSA
,,,,,,,5f022d91a43ac63b4a27c050,001,2020-10-27_17h52.37.244,lextale_sp,2020.2.3,Win32,60,,,,,,,,,24,látigo,1,,,0,0,1.133585,0,41,41,23,1,REAL,FALSA
,,,,,,,5f022d91a43ac63b4a27c050,001,2020-10-27_17h52.37.244,lextale_sp,2020.2.3,Win32,60,,,,,,,,,48,ladrón,1,,,1,1,0.76758,0,42,42,47,1,REAL,FALSA
,,,,,,,5f022d91a43ac63b4a27c050,001,2020-10-27_17h52.37.244,lextale_sp,2020.2.3,Win32,60,,,,,,,,,15,regar,1,,,0,0,0.79085,0,43,43,14,1,REAL,FALSA
,,,,,,,5f022d91a43ac63b4a27c050,001,2020-10-27_17h52.37.244,lextale_sp,2020.2.3,Win32,60,,,,,,,,,37,granuja,1,,,0,0,1.500525,0,44,44,36,1,REAL,FALSA
,,,,,,,5f022d91a43ac63b4a27c050,001,2020-10-27_17h52.37.244,lextale_sp,2020.2.3,Win32,60,,,,,,,,,36,loro,1,,,0,0,1.149105,0,45,45,35,1,REAL,FALSA
,,,,,,,5f022d91a43ac63b4a27c050,001,2020-10-27_17h52.37.244,lextale_sp,2020.2.3,Win32,60,,,,,,,,,3,pulmones,1,,,1,1,0.753325,0,46,46,2,1,REAL,FALSA
,,,,,,,5f022d91a43ac63b4a27c050,001,2020-10-27_17h52.37.244,lextale_sp,2020.2.3,Win32,60,,,,,,,,,38,estornudar,1,,,0,0,2.131985,0,47,47,37,1,REAL,FALSA
,,,,,,,5f022d91a43ac63b4a27c050,001,2020-10-27_17h52.37.244,lextale_sp,2020.2.3,Win32,60,,,,,,,,,65,bizcocho,1,,,0,0,0.74948,0,48,48,64,1,REAL,FALSA
,,,,,,,5f022d91a43ac63b4a27c050,001,2020-10-27_17h52.37.244,lextale_sp,2020.2.3,Win32,60,,,,,,,,,5,zapato,1,,,1,1,0.76574,0,49,49,4,1,REAL,FALSA
,,,,,,,5f022d91a43ac63b4a27c050,001,2020-10-27_17h52.37.244,lextale_sp,2020.2.3,Win32,60,,,,,,,,,45,jilguero,1,,,0,0,0.684945,0,50,50,44,1,REAL,FALSA
,,,,,,,5f022d91a43ac63b4a27c050,001,2020-10-27_17h52.37.244,lextale_sp,2020.2.3,Win32,60,,,,,,,,,81,pozo,1,,,1,1,0.71863,0,51,51,80,1,REAL,FALSA
,,,,,,,5f022d91a43ac63b4a27c050,001,2020-10-27_17h52.37.244,lextale_sp,2020.2.3,Win32,60,,,,,,,,,88,acantilado,1,,,1,1,1.585085,0,52,52,87,1,REAL,FALSA
,,,,,,,5f022d91a43ac63b4a27c050,001,2020-10-27_17h52.37.244,lextale_sp,2020.2.3,Win32,60,,,,,,,,,11,cenefa,1,,,0,0,0.833605,0,53,53,10,1,REAL,FALSA
,,,,,,,5f022d91a43ac63b4a27c050,001,2020-10-27_17h52.37.244,lextale_sp,2020.2.3,Win32,60,,,,,,,,,86,barato,1,,,1,1,0.81826,0,54,54,85,1,REAL,FALSA
,,,,,,,5f022d91a43ac63b4a27c050,001,2020-10-27_17h52.37.244,lextale_sp,2020.2.3,Win32,60,,,,,,,,,61,seda,1,,,0,0,1.61666,0,55,55,60,1,REAL,FALSA
,,,,,,,5f022d91a43ac63b4a27c050,001,2020-10-27_17h52.37.244,lextale_sp,2020.2.3,Win32,60,,,,,,,,,71,polvoriento,1,,,0,0,1.43476,0,56,56,70,1,REAL,FALSA
,,,,,,,5f022d91a43ac63b4a27c050,001,2020-10-27_17h52.37.244,lextale_sp,2020.2.3,Win32,60,,,,,,,,,73,hervidor,1,,,0,0,1.83484,0,57,57,72,1,REAL,FALSA
,,,,,,,5f022d91a43ac63b4a27c050,001,2020-10-27_17h52.37.244,lextale_sp,2020.2.3,Win32,60,,,,,,,,,34,aviso,1,,,1,1,0.768215,0,58,58,33,1,REAL,FALSA
,,,,,,,5f022d91a43ac63b4a27c050,001,2020-10-27_17h52.37.244,lextale_sp,2020.2.3,Win32,60,,,,,,,,,49,ganar,1,,,1,1,0.7178,0,59,59,48,1,REAL,FALSA
,,,,,,,5f022d91a43ac63b4a27c050,001,2020-10-27_17h52.37.244,lextale_sp,2020.2.3,Win32,60,,,,,,,,,41,rebuscar,1,,,1,1,3.31822,0,60,60,40,1,REAL,FALSA
,,,,,,,5f022d91a43ac63b4a27c050,001,2020-10-27_17h52.37.244,lextale_sp,2020.2.3,Win32,60,,,,,,,,,56,musgo,1,,,0,0,1.300515,0,61,61,55,1,REAL,FALSA
,,,,,,,5f022d91a43ac63b4a27c050,001,2020-10-27_17h52.37.244,lextale_sp,2020.2.3,Win32,60,,,,,,,,,47,cartinar,0,,,0,1,1.567865,0,62,62,46,1,REAL,FALSA
,,,,,,,5f022d91a43ac63b4a27c050,001,2020-10-27_17h52.37.244,lextale_sp,2020.2.3,Win32,60,,,,,,,,,59,besar,1,,,1,1,0.752215,0,63,63,58,1,REAL,FALSA
,,,,,,,5f022d91a43ac63b4a27c050,001,2020-10-27_17h52.37.244,lextale_sp,2020.2.3,Win32,60,,,,,,,,,51,candado,1,,,0,0,1.518305,0,64,64,50,1,REAL,FALSA
,,,,,,,5f022d91a43ac63b4a27c050,001,2020-10-27_17h52.37.244,lextale_sp,2020.2.3,Win32,60,,,,,,,,,14,yunque,1,,,0,0,0.87025,0,65,65,13,1,REAL,FALSA
,,,,,,,5f022d91a43ac63b4a27c050,001,2020-10-27_17h52.37.244,lextale_sp,2020.2.3,Win32,60,,,,,,,,,44,cuchara,1,,,1,1,0.80129,0,66,66,43,1,REAL,FALSA
,,,,,,,5f022d91a43ac63b4a27c050,001,2020-10-27_17h52.37.244,lextale_sp,2020.2.3,Win32,60,,,,,,,,,82,empirador,0,,,1,0,1.23488,0,67,67,81,1,REAL,FALSA
,,,,,,,5f022d91a43ac63b4a27c050,001,2020-10-27_17h52.37.244,lextale_sp,2020.2.3,Win32,60,,,,,,,,,90,clavel,1,,,0,0,0.86818,0,68,68,89,1,REAL,FALSA
,,,,,,,5f022d91a43ac63b4a27c050,001,2020-10-27_17h52.37.244,lextale_sp,2020.2.3,Win32,60,,,,,,,,,85,laúd,1,,,0,0,0.868585,0,69,69,84,1,REAL,FALSA
,,,,,,,5f022d91a43ac63b4a27c050,001,2020-10-27_17h52.37.244,lextale_sp,2020.2.3,Win32,60,,,,,,,,,60,matar,1,,,1,1,0.768035,0,70,70,59,1,REAL,FALSA
,,,,,,,5f022d91a43ac63b4a27c050,001,2020-10-27_17h52.37.244,lextale_sp,2020.2.3,Win32,60,,,,,,,,,17,floroso,0,,,0,1,1.40189,0,71,71,16,1,REAL,FALSA
,,,,,,,5f022d91a43ac63b4a27c050,001,2020-10-27_17h52.37.244,lextale_sp,2020.2.3,Win32,60,,,,,,,,,50,flamida,0,,,1,0,1.20236,0,72,72,49,1,REAL,FALSA
,,,,,,,5f022d91a43ac63b4a27c050,001,2020-10-27_17h52.37.244,lextale_sp,2020.2.3,Win32,60,,,,,,,,,52,camisa,1,,,1,1,0.751585,0,73,73,51,1,REAL,FALSA
,,,,,,,5f022d91a43ac63b4a27c050,001,2020-10-27_17h52.37.244,lextale_sp,2020.2.3,Win32,60,,,,,,,,,4,batillón,0,,,0,1,1.33721,0,74,74,3,1,REAL,FALSA
,,,,,,,5f022d91a43ac63b4a27c050,001,2020-10-27_17h52.37.244,lextale_sp,2020.2.3,Win32,60,,,,,,,,,75,yacer,1,,,0,0,0.734495,0,75,75,74,1,REAL,FALSA
,,,,,,,5f022d91a43ac63b4a27c050,001,2020-10-27_17h52.37.244,lextale_sp,2020.2.3,Win32,60,,,,,,,,,53,vegada,0,,,0,1,1.00147,0,76,76,52,1,REAL,FALSA
,,,,,,,5f022d91a43ac63b4a27c050,001,2020-10-27_17h52.37.244,lextale_sp,2020.2.3,Win32,60,,,,,,,,,70,temblo,0,,,0,1,1.48496,0,77,77,69,1,REAL,FALSA
,,,,,,,5f022d91a43ac63b4a27c050,001,2020-10-27_17h52.37.244,lextale_sp,2020.2.3,Win32,60,,,,,,,,,18,arsa,0,,,0,1,0.75251,0,78,78,17,1,REAL,FALSA
,,,,,,,5f022d91a43ac63b4a27c050,001,2020-10-27_17h52.37.244,lextale_sp,2020.2.3,Win32,60,,,,,,,,,21,capillo,0,,,1,0,1.485505,0,79,79,20,1,REAL,FALSA
,,,,,,,5f022d91a43ac63b4a27c050,001,2020-10-27_17h52.37.244,lextale_sp,2020.2.3,Win32,60,,,,,,,,,10,antar,0,,,0,1,1.43487,0,80,80,9,1,REAL,FALSA
,,,,,,,5f022d91a43ac63b4a27c050,001,2020-10-27_17h52.37.244,lextale_sp,2020.2.3,Win32,60,,,,,,,,,79,tropaje,0,,,0,1,0.952315,0,81,81,78,1,REAL,FALSA
,,,,,,,5f022d91a43ac63b4a27c050,001,2020-10-27_17h52.37.244,lextale_sp,2020.2.3,Win32,60,,,,,,,,,67,cabello,1,,,1,1,0.90206,0,82,82,66,1,REAL,FALSA
,,,,,,,5f022d91a43ac63b4a27c050,001,2020-10-27_17h52.37.244,lextale_sp,2020.2.3,Win32,60,,,,,,,,,27,acutación,0,,,0,1,3.101695,0,83,83,26,1,REAL,FALSA
,,,,,,,5f022d91a43ac63b4a27c050,001,2020-10-27_17h52.37.244,lextale_sp,2020.2.3,Win32,60,,,,,,,,,69,engatusar,1,,,0,0,0.88489,0,84,84,68,1,REAL,FALSA
,,,,,,,5f022d91a43ac63b4a27c050,001,2020-10-27_17h52.37.244,lextale_sp,2020.2.3,Win32,60,,,,,,,,,9,hacha,1,,,0,0,0.85246,0,85,85,8,1,REAL,FALSA
,,,,,,,5f022d91a43ac63b4a27c050,001,2020-10-27_17h52.37.244,lextale_sp,2020.2.3,Win32,60,,,,,,,,,76,atar,1,,,1,1,1.10215,0,86,86,75,1,REAL,FALSA
,,,,,,,5f022d91a43ac63b4a27c050,001,2020-10-27_17h52.37.244,lextale_sp,2020.2.3,Win32,60,,,,,,,,,46,martillo,1,,,0,0,1.001655,0,87,87,45,1,REAL,FALSA
,,,,,,,5f022d91a43ac63b4a27c050,001,2020-10-27_17h52.37.244,lextale_sp,2020.2.3,Win32,60,,,,,,,,,16,abracer,0,,,1,0,1.551385,0,88,88,15,1,REAL,FALSA
,,,,,,,5f022d91a43ac63b4a27c050,001,2020-10-27_17h52.37.244,lextale_sp,2020.2.3,Win32,60,,,,,,,,,54,fomentar,1,,,1,1,1.268045,0,89,89,53,1,REAL,FALSA
