lextale_instructions_loop.thisRepN,lextale_instructions_loop.thisTrialN,lextale_instructions_loop.thisN,lextale_instructions_loop.thisIndex,lextale_instructions_loop.ran,instructions_text,continue_text,participant,session,date,expName,psychopyVersion,OS,frameRate,key_resp_lextale_practice.keys,key_resp_lextale_practice.corr,key_resp_lextale_practice.rt,lextale_practice_trials.thisRepN,lextale_practice_trials.thisTrialN,lextale_practice_trials.thisN,lextale_practice_trials.thisIndex,lextale_practice_trials.ran,stim,word,correct_response,prac_button_real,prac_button_false,key_resp_lextale_trial.keys,key_resp_lextale_trial.corr,key_resp_lextale_trial.rt,lextail_trials.thisRepN,lextail_trials.thisTrialN,lextail_trials.thisN,lextail_trials.thisIndex,lextail_trials.ran,button_real,button_false
0,0,0,0,1,"Este es un test de vocabulario en español. 
  
  A continuación vas a ver 90 secuencias de letras que parecen 'españolas'.
  
  Solo algunas de ellas son palabras de verdad.",(presiona la barra espaciadora para continuar),5f26bac88dfa6b4245d86e2d,001,2020-10-29_14h20.04.005,lextale_sp,2020.2.3,Win32,60,,,,,,,,,,,,,,,,,,,,,,,
0,1,1,1,1,"Por favor, señala las palabras que tú conoces (aquellas que estás convencido que son palabras españolas, incluso aunque no seas capaz de dar el significado preciso).",(presiona la barra espaciadora para continuar),5f26bac88dfa6b4245d86e2d,001,2020-10-29_14h20.04.005,lextale_sp,2020.2.3,Win32,60,,,,,,,,,,,,,,,,,,,,,,,
0,2,2,2,1,Pero cuidado: los errores se penalizan. Por eso no tiene sentido tratar de incrementar tu puntuación marcando como reales palabras que nunca has visto.,(presiona la barra espaciadora para continuar),5f26bac88dfa6b4245d86e2d,001,2020-10-29_14h20.04.005,lextale_sp,2020.2.3,Win32,60,,,,,,,,,,,,,,,,,,,,,,,
0,3,3,3,1,"Presiona la tecla 1 si piensas que es una palabra real y la tecla 
  0 si piensas que es una palabra falsa. 
  
  Vamos a practicar un poco...",(presiona la barra espaciadora para continuar),5f26bac88dfa6b4245d86e2d,001,2020-10-29_14h20.04.005,lextale_sp,2020.2.3,Win32,60,,,,,,,,,,,,,,,,,,,,,,,
,,,,,,,5f26bac88dfa6b4245d86e2d,001,2020-10-29_14h20.04.005,lextale_sp,2020.2.3,Win32,60,1,0,26.231695,0,0,0,0,1,0,depiste,0,REAL,FALSA,,,,,,,,,,
,,,,,,,5f26bac88dfa6b4245d86e2d,001,2020-10-29_14h20.04.005,lextale_sp,2020.2.3,Win32,60,1,1,3.559945,0,1,1,1,1,0,sí,1,REAL,FALSA,,,,,,,,,,
,,,,,,,5f26bac88dfa6b4245d86e2d,001,2020-10-29_14h20.04.005,lextale_sp,2020.2.3,Win32,60,1,0,0.02501,0,2,2,2,1,0,coné,0,REAL,FALSA,,,,,,,,,,
,,,,,,,5f26bac88dfa6b4245d86e2d,001,2020-10-29_14h20.04.005,lextale_sp,2020.2.3,Win32,60,1,0,2.82945,0,3,3,3,1,0,calpar,0,REAL,FALSA,,,,,,,,,,
,,,,,,,5f26bac88dfa6b4245d86e2d,001,2020-10-29_14h20.04.005,lextale_sp,2020.2.3,Win32,60,1,0,0.83558,0,4,4,4,1,0,joten,0,REAL,FALSA,,,,,,,,,,
,,,,,,,5f26bac88dfa6b4245d86e2d,001,2020-10-29_14h20.04.005,lextale_sp,2020.2.3,Win32,60,1,1,2.434425,0,5,5,5,1,0,sacapuntas,1,REAL,FALSA,,,,,,,,,,
,,,,,,,5f26bac88dfa6b4245d86e2d,001,2020-10-29_14h20.04.005,lextale_sp,2020.2.3,Win32,60,1,0,0.10126,0,6,6,6,1,0,priba,0,REAL,FALSA,,,,,,,,,,
,,,,,,,5f26bac88dfa6b4245d86e2d,001,2020-10-29_14h20.04.005,lextale_sp,2020.2.3,Win32,60,1,0,0.14329,0,7,7,7,1,0,pelasula,0,REAL,FALSA,,,,,,,,,,
,,,,,,,5f26bac88dfa6b4245d86e2d,001,2020-10-29_14h20.04.005,lextale_sp,2020.2.3,Win32,60,1,1,0.68096,0,8,8,8,1,0,bien,1,REAL,FALSA,,,,,,,,,,
,,,,,,,5f26bac88dfa6b4245d86e2d,001,2020-10-29_14h20.04.005,lextale_sp,2020.2.3,Win32,60,1,1,1.913035,0,9,9,9,1,0,casa,1,REAL,FALSA,,,,,,,,,,
,,,,,,,5f26bac88dfa6b4245d86e2d,001,2020-10-29_14h20.04.005,lextale_sp,2020.2.3,Win32,60,1,0,1.839245,0,10,10,10,1,0,lejo,0,REAL,FALSA,,,,,,,,,,
,,,,,,,5f26bac88dfa6b4245d86e2d,001,2020-10-29_14h20.04.005,lextale_sp,2020.2.3,Win32,60,1,0,2.375805,0,11,11,11,1,0,pretantas,0,REAL,FALSA,,,,,,,,,,
,,,,,,,5f26bac88dfa6b4245d86e2d,001,2020-10-29_14h20.04.005,lextale_sp,2020.2.3,Win32,60,,,,,,,,,15,regar,1,,,1,1,1.118805,0,0,0,14,1,REAL,FALSA
,,,,,,,5f26bac88dfa6b4245d86e2d,001,2020-10-29_14h20.04.005,lextale_sp,2020.2.3,Win32,60,,,,,,,,,23,lampera,0,,,1,0,0.10715,0,1,1,22,1,REAL,FALSA
,,,,,,,5f26bac88dfa6b4245d86e2d,001,2020-10-29_14h20.04.005,lextale_sp,2020.2.3,Win32,60,,,,,,,,,86,barato,1,,,1,1,0.03568,0,2,2,85,1,REAL,FALSA
,,,,,,,5f26bac88dfa6b4245d86e2d,001,2020-10-29_14h20.04.005,lextale_sp,2020.2.3,Win32,60,,,,,,,,,52,camisa,1,,,1,1,0.138445,0,3,3,51,1,REAL,FALSA
,,,,,,,5f26bac88dfa6b4245d86e2d,001,2020-10-29_14h20.04.005,lextale_sp,2020.2.3,Win32,60,,,,,,,,,17,floroso,0,,,1,0,0.107675,0,4,4,16,1,REAL,FALSA
,,,,,,,5f26bac88dfa6b4245d86e2d,001,2020-10-29_14h20.04.005,lextale_sp,2020.2.3,Win32,60,,,,,,,,,16,abracer,0,,,1,0,0.47571,0,5,5,15,1,REAL,FALSA
,,,,,,,5f26bac88dfa6b4245d86e2d,001,2020-10-29_14h20.04.005,lextale_sp,2020.2.3,Win32,60,,,,,,,,,59,besar,1,,,1,1,0.21087,0,6,6,58,1,REAL,FALSA
,,,,,,,5f26bac88dfa6b4245d86e2d,001,2020-10-29_14h20.04.005,lextale_sp,2020.2.3,Win32,60,,,,,,,,,48,ladrón,1,,,1,1,0.65455,0,7,7,47,1,REAL,FALSA
,,,,,,,5f26bac88dfa6b4245d86e2d,001,2020-10-29_14h20.04.005,lextale_sp,2020.2.3,Win32,60,,,,,,,,,64,orgulloso,1,,,1,1,0.24044,0,8,8,63,1,REAL,FALSA
,,,,,,,5f26bac88dfa6b4245d86e2d,001,2020-10-29_14h20.04.005,lextale_sp,2020.2.3,Win32,60,,,,,,,,,87,grodo,0,,,1,0,0.437895,0,9,9,86,1,REAL,FALSA
,,,,,,,5f26bac88dfa6b4245d86e2d,001,2020-10-29_14h20.04.005,lextale_sp,2020.2.3,Win32,60,,,,,,,,,62,flaco,1,,,1,1,0.40151,0,10,10,61,1,REAL,FALSA
,,,,,,,5f26bac88dfa6b4245d86e2d,001,2020-10-29_14h20.04.005,lextale_sp,2020.2.3,Win32,60,,,,,,,,,73,hervidor,1,,,1,1,0.184645,0,11,11,72,1,REAL,FALSA
,,,,,,,5f26bac88dfa6b4245d86e2d,001,2020-10-29_14h20.04.005,lextale_sp,2020.2.3,Win32,60,,,,,,,,,10,antar,0,,,1,0,0.09203,0,12,12,9,1,REAL,FALSA
,,,,,,,5f26bac88dfa6b4245d86e2d,001,2020-10-29_14h20.04.005,lextale_sp,2020.2.3,Win32,60,,,,,,,,,24,látigo,1,,,1,1,0.105565,0,13,13,23,1,REAL,FALSA
,,,,,,,5f26bac88dfa6b4245d86e2d,001,2020-10-29_14h20.04.005,lextale_sp,2020.2.3,Win32,60,,,,,,,,,25,bisagra,1,,,1,1,0.112795,0,14,14,24,1,REAL,FALSA
,,,,,,,5f26bac88dfa6b4245d86e2d,001,2020-10-29_14h20.04.005,lextale_sp,2020.2.3,Win32,60,,,,,,,,,4,batillón,0,,,1,0,0.35141,0,15,15,3,1,REAL,FALSA
,,,,,,,5f26bac88dfa6b4245d86e2d,001,2020-10-29_14h20.04.005,lextale_sp,2020.2.3,Win32,60,,,,,,,,,20,ávido,1,,,1,1,0.00381,0,16,16,19,1,REAL,FALSA
,,,,,,,5f26bac88dfa6b4245d86e2d,001,2020-10-29_14h20.04.005,lextale_sp,2020.2.3,Win32,60,,,,,,,,,21,capillo,0,,,1,0,0.000775,0,17,17,20,1,REAL,FALSA
,,,,,,,5f26bac88dfa6b4245d86e2d,001,2020-10-29_14h20.04.005,lextale_sp,2020.2.3,Win32,60,,,,,,,,,71,polvoriento,1,,,1,1,0.05248,0,18,18,70,1,REAL,FALSA
,,,,,,,5f26bac88dfa6b4245d86e2d,001,2020-10-29_14h20.04.005,lextale_sp,2020.2.3,Win32,60,,,,,,,,,89,prisa,1,,,1,1,0.33416,0,19,19,88,1,REAL,FALSA
,,,,,,,5f26bac88dfa6b4245d86e2d,001,2020-10-29_14h20.04.005,lextale_sp,2020.2.3,Win32,60,,,,,,,,,76,atar,1,,,1,1,0.937095,0,20,20,75,1,REAL,FALSA
,,,,,,,5f26bac88dfa6b4245d86e2d,001,2020-10-29_14h20.04.005,lextale_sp,2020.2.3,Win32,60,,,,,,,,,36,loro,1,,,1,1,0.439605,0,21,21,35,1,REAL,FALSA
,,,,,,,5f26bac88dfa6b4245d86e2d,001,2020-10-29_14h20.04.005,lextale_sp,2020.2.3,Win32,60,,,,,,,,,55,nevar,1,,,1,1,0.000825,0,22,22,54,1,REAL,FALSA
,,,,,,,5f26bac88dfa6b4245d86e2d,001,2020-10-29_14h20.04.005,lextale_sp,2020.2.3,Win32,60,,,,,,,,,14,yunque,1,,,1,1,0.264335,0,23,23,13,1,REAL,FALSA
,,,,,,,5f26bac88dfa6b4245d86e2d,001,2020-10-29_14h20.04.005,lextale_sp,2020.2.3,Win32,60,,,,,,,,,18,arsa,0,,,1,0,1.128895,0,24,24,17,1,REAL,FALSA
,,,,,,,5f26bac88dfa6b4245d86e2d,001,2020-10-29_14h20.04.005,lextale_sp,2020.2.3,Win32,60,,,,,,,,,81,pozo,1,,,1,1,0.551925,0,25,25,80,1,REAL,FALSA
,,,,,,,5f26bac88dfa6b4245d86e2d,001,2020-10-29_14h20.04.005,lextale_sp,2020.2.3,Win32,60,,,,,,,,,19,brecedad,0,,,1,0,0.24192,0,26,26,18,1,REAL,FALSA
,,,,,,,5f26bac88dfa6b4245d86e2d,001,2020-10-29_14h20.04.005,lextale_sp,2020.2.3,Win32,60,,,,,,,,,39,torpe,1,,,1,1,0.408405,0,27,27,38,1,REAL,FALSA
,,,,,,,5f26bac88dfa6b4245d86e2d,001,2020-10-29_14h20.04.005,lextale_sp,2020.2.3,Win32,60,,,,,,,,,6,tergiversar,1,,,1,1,0.35166,0,28,28,5,1,REAL,FALSA
,,,,,,,5f26bac88dfa6b4245d86e2d,001,2020-10-29_14h20.04.005,lextale_sp,2020.2.3,Win32,60,,,,,,,,,47,cartinar,0,,,1,0,0.01245,0,29,29,46,1,REAL,FALSA
,,,,,,,5f26bac88dfa6b4245d86e2d,001,2020-10-29_14h20.04.005,lextale_sp,2020.2.3,Win32,60,,,,,,,,,37,granuja,1,,,1,1,1.084025,0,30,30,36,1,REAL,FALSA
,,,,,,,5f26bac88dfa6b4245d86e2d,001,2020-10-29_14h20.04.005,lextale_sp,2020.2.3,Win32,60,,,,,,,,,49,ganar,1,,,1,1,0.311325,0,31,31,48,1,REAL,FALSA
,,,,,,,5f26bac88dfa6b4245d86e2d,001,2020-10-29_14h20.04.005,lextale_sp,2020.2.3,Win32,60,,,,,,,,,90,clavel,1,,,1,1,3.50476,0,32,32,89,1,REAL,FALSA
,,,,,,,5f26bac88dfa6b4245d86e2d,001,2020-10-29_14h20.04.005,lextale_sp,2020.2.3,Win32,60,,,,,,,,,82,empirador,0,,,1,0,0.31791,0,33,33,81,1,REAL,FALSA
,,,,,,,5f26bac88dfa6b4245d86e2d,001,2020-10-29_14h20.04.005,lextale_sp,2020.2.3,Win32,60,,,,,,,,,78,frondoso,1,,,1,1,0.373025,0,34,34,77,1,REAL,FALSA
,,,,,,,5f26bac88dfa6b4245d86e2d,001,2020-10-29_14h20.04.005,lextale_sp,2020.2.3,Win32,60,,,,,,,,,42,cadallo,0,,,1,0,1.29598,0,35,35,41,1,REAL,FALSA
,,,,,,,5f26bac88dfa6b4245d86e2d,001,2020-10-29_14h20.04.005,lextale_sp,2020.2.3,Win32,60,,,,,,,,,58,plaudir,0,,,1,0,0.606225,0,36,36,57,1,REAL,FALSA
,,,,,,,5f26bac88dfa6b4245d86e2d,001,2020-10-29_14h20.04.005,lextale_sp,2020.2.3,Win32,60,,,,,,,,,79,tropaje,0,,,1,0,1.24757,0,37,37,78,1,REAL,FALSA
,,,,,,,5f26bac88dfa6b4245d86e2d,001,2020-10-29_14h20.04.005,lextale_sp,2020.2.3,Win32,60,,,,,,,,,74,cintro,0,,,1,0,0.48147,0,38,38,73,1,REAL,FALSA
,,,,,,,5f26bac88dfa6b4245d86e2d,001,2020-10-29_14h20.04.005,lextale_sp,2020.2.3,Win32,60,,,,,,,,,56,musgo,1,,,1,1,0.705125,0,39,39,55,1,REAL,FALSA
,,,,,,,5f26bac88dfa6b4245d86e2d,001,2020-10-29_14h20.04.005,lextale_sp,2020.2.3,Win32,60,,,,,,,,,63,esposante,0,,,1,0,0.375815,0,40,40,62,1,REAL,FALSA
,,,,,,,5f26bac88dfa6b4245d86e2d,001,2020-10-29_14h20.04.005,lextale_sp,2020.2.3,Win32,60,,,,,,,,,77,tiburón,1,,,1,1,2.50273,0,41,41,76,1,REAL,FALSA
,,,,,,,5f26bac88dfa6b4245d86e2d,001,2020-10-29_14h20.04.005,lextale_sp,2020.2.3,Win32,60,,,,,,,,,33,pauca,0,,,1,0,0.267955,0,42,42,32,1,REAL,FALSA
,,,,,,,5f26bac88dfa6b4245d86e2d,001,2020-10-29_14h20.04.005,lextale_sp,2020.2.3,Win32,60,,,,,,,,,29,decar,0,,,1,0,0.4469,0,43,43,28,1,REAL,FALSA
,,,,,,,5f26bac88dfa6b4245d86e2d,001,2020-10-29_14h20.04.005,lextale_sp,2020.2.3,Win32,60,,,,,,,,,66,hacido,0,,,1,0,0.318105,0,44,44,65,1,REAL,FALSA
,,,,,,,5f26bac88dfa6b4245d86e2d,001,2020-10-29_14h20.04.005,lextale_sp,2020.2.3,Win32,60,,,,,,,,,67,cabello,1,,,1,1,0.32291,0,45,45,66,1,REAL,FALSA
,,,,,,,5f26bac88dfa6b4245d86e2d,001,2020-10-29_14h20.04.005,lextale_sp,2020.2.3,Win32,60,,,,,,,,,32,fatacidad,0,,,1,0,0.35495,0,46,46,31,1,REAL,FALSA
,,,,,,,5f26bac88dfa6b4245d86e2d,001,2020-10-29_14h20.04.005,lextale_sp,2020.2.3,Win32,60,,,,,,,,,44,cuchara,1,,,1,1,0.28644,0,47,47,43,1,REAL,FALSA
,,,,,,,5f26bac88dfa6b4245d86e2d,001,2020-10-29_14h20.04.005,lextale_sp,2020.2.3,Win32,60,,,,,,,,,50,flamida,0,,,1,0,0.0399,0,48,48,49,1,REAL,FALSA
,,,,,,,5f26bac88dfa6b4245d86e2d,001,2020-10-29_14h20.04.005,lextale_sp,2020.2.3,Win32,60,,,,,,,,,83,guante,1,,,1,1,0.368125,0,49,49,82,1,REAL,FALSA
,,,,,,,5f26bac88dfa6b4245d86e2d,001,2020-10-29_14h20.04.005,lextale_sp,2020.2.3,Win32,60,,,,,,,,,22,lacayo,1,,,1,1,0.244185,0,50,50,21,1,REAL,FALSA
,,,,,,,5f26bac88dfa6b4245d86e2d,001,2020-10-29_14h20.04.005,lextale_sp,2020.2.3,Win32,60,,,,,,,,,84,escuto,0,,,1,0,0.318205,0,51,51,83,1,REAL,FALSA
,,,,,,,5f26bac88dfa6b4245d86e2d,001,2020-10-29_14h20.04.005,lextale_sp,2020.2.3,Win32,60,,,,,,,,,70,temblo,0,,,1,0,0.264835,0,52,52,69,1,REAL,FALSA
,,,,,,,5f26bac88dfa6b4245d86e2d,001,2020-10-29_14h20.04.005,lextale_sp,2020.2.3,Win32,60,,,,,,,,,13,helar,1,,,1,1,0.198485,0,53,53,12,1,REAL,FALSA
,,,,,,,5f26bac88dfa6b4245d86e2d,001,2020-10-29_14h20.04.005,lextale_sp,2020.2.3,Win32,60,,,,,,,,,12,asesinato,1,,,1,1,0.14595,0,54,54,11,1,REAL,FALSA
,,,,,,,5f26bac88dfa6b4245d86e2d,001,2020-10-29_14h20.04.005,lextale_sp,2020.2.3,Win32,60,,,,,,,,,53,vegada,0,,,1,0,0.492425,0,55,55,52,1,REAL,FALSA
,,,,,,,5f26bac88dfa6b4245d86e2d,001,2020-10-29_14h20.04.005,lextale_sp,2020.2.3,Win32,60,,,,,,,,,9,hacha,1,,,1,1,0.50983,0,56,56,8,1,REAL,FALSA
,,,,,,,5f26bac88dfa6b4245d86e2d,001,2020-10-29_14h20.04.005,lextale_sp,2020.2.3,Win32,60,,,,,,,,,40,alfombra,1,,,1,1,0.484715,0,57,57,39,1,REAL,FALSA
,,,,,,,5f26bac88dfa6b4245d86e2d,001,2020-10-29_14h20.04.005,lextale_sp,2020.2.3,Win32,60,,,,,,,,,69,engatusar,1,,,1,1,0.308165,0,58,58,68,1,REAL,FALSA
,,,,,,,5f26bac88dfa6b4245d86e2d,001,2020-10-29_14h20.04.005,lextale_sp,2020.2.3,Win32,60,,,,,,,,,68,alegre,1,,,1,1,0.324705,0,59,59,67,1,REAL,FALSA
,,,,,,,5f26bac88dfa6b4245d86e2d,001,2020-10-29_14h20.04.005,lextale_sp,2020.2.3,Win32,60,,,,,,,,,85,laúd,1,,,1,1,0.27009,0,60,60,84,1,REAL,FALSA
,,,,,,,5f26bac88dfa6b4245d86e2d,001,2020-10-29_14h20.04.005,lextale_sp,2020.2.3,Win32,60,,,,,,,,,61,seda,1,,,1,1,0.08191,0,61,61,60,1,REAL,FALSA
,,,,,,,5f26bac88dfa6b4245d86e2d,001,2020-10-29_14h20.04.005,lextale_sp,2020.2.3,Win32,60,,,,,,,,,80,hormiga,1,,,1,1,0.22321,0,62,62,79,1,REAL,FALSA
,,,,,,,5f26bac88dfa6b4245d86e2d,001,2020-10-29_14h20.04.005,lextale_sp,2020.2.3,Win32,60,,,,,,,,,34,aviso,1,,,1,1,0.81385,0,63,63,33,1,REAL,FALSA
,,,,,,,5f26bac88dfa6b4245d86e2d,001,2020-10-29_14h20.04.005,lextale_sp,2020.2.3,Win32,60,,,,,,,,,72,pemición,0,,,1,0,0.01724,0,64,64,71,1,REAL,FALSA
,,,,,,,5f26bac88dfa6b4245d86e2d,001,2020-10-29_14h20.04.005,lextale_sp,2020.2.3,Win32,60,,,,,,,,,75,yacer,1,,,1,1,0.161415,0,65,65,74,1,REAL,FALSA
,,,,,,,5f26bac88dfa6b4245d86e2d,001,2020-10-29_14h20.04.005,lextale_sp,2020.2.3,Win32,60,,,,,,,,,5,zapato,1,,,1,1,0.14168,0,66,66,4,1,REAL,FALSA
,,,,,,,5f26bac88dfa6b4245d86e2d,001,2020-10-29_14h20.04.005,lextale_sp,2020.2.3,Win32,60,,,,,,,,,51,candado,1,,,1,1,0.00089,0,67,67,50,1,REAL,FALSA
,,,,,,,5f26bac88dfa6b4245d86e2d,001,2020-10-29_14h20.04.005,lextale_sp,2020.2.3,Win32,60,,,,,,,,,41,rebuscar,1,,,1,1,0.47262,0,68,68,40,1,REAL,FALSA
,,,,,,,5f26bac88dfa6b4245d86e2d,001,2020-10-29_14h20.04.005,lextale_sp,2020.2.3,Win32,60,,,,,,,,,30,alardio,0,,,1,0,0.35145,0,69,69,29,1,REAL,FALSA
,,,,,,,5f26bac88dfa6b4245d86e2d,001,2020-10-29_14h20.04.005,lextale_sp,2020.2.3,Win32,60,,,,,,,,,31,pandilla,1,,,1,1,0.650545,0,70,70,30,1,REAL,FALSA
,,,,,,,5f26bac88dfa6b4245d86e2d,001,2020-10-29_14h20.04.005,lextale_sp,2020.2.3,Win32,60,,,,,,,,,46,martillo,1,,,1,1,0.64523,0,71,71,45,1,REAL,FALSA
,,,,,,,5f26bac88dfa6b4245d86e2d,001,2020-10-29_14h20.04.005,lextale_sp,2020.2.3,Win32,60,,,,,,,,,28,merodear,1,,,1,1,1.268075,0,72,72,27,1,REAL,FALSA
,,,,,,,5f26bac88dfa6b4245d86e2d,001,2020-10-29_14h20.04.005,lextale_sp,2020.2.3,Win32,60,,,,,,,,,57,tacaño,1,,,1,1,0.52422,0,73,73,56,1,REAL,FALSA
,,,,,,,5f26bac88dfa6b4245d86e2d,001,2020-10-29_14h20.04.005,lextale_sp,2020.2.3,Win32,60,,,,,,,,,54,fomentar,1,,,1,1,0.322145,0,74,74,53,1,REAL,FALSA
,,,,,,,5f26bac88dfa6b4245d86e2d,001,2020-10-29_14h20.04.005,lextale_sp,2020.2.3,Win32,60,,,,,,,,,60,matar,1,,,1,1,0.556845,0,75,75,59,1,REAL,FALSA
,,,,,,,5f26bac88dfa6b4245d86e2d,001,2020-10-29_14h20.04.005,lextale_sp,2020.2.3,Win32,60,,,,,,,,,3,pulmones,1,,,1,1,1.484545,0,76,76,2,1,REAL,FALSA
,,,,,,,5f26bac88dfa6b4245d86e2d,001,2020-10-29_14h20.04.005,lextale_sp,2020.2.3,Win32,60,,,,,,,,,26,secuestro,1,,,1,1,0.14532,0,77,77,25,1,REAL,FALSA
,,,,,,,5f26bac88dfa6b4245d86e2d,001,2020-10-29_14h20.04.005,lextale_sp,2020.2.3,Win32,60,,,,,,,,,35,rompido,0,,,1,0,0.517565,0,78,78,34,1,REAL,FALSA
,,,,,,,5f26bac88dfa6b4245d86e2d,001,2020-10-29_14h20.04.005,lextale_sp,2020.2.3,Win32,60,,,,,,,,,88,acantilado,1,,,1,1,0.10664,0,79,79,87,1,REAL,FALSA
,,,,,,,5f26bac88dfa6b4245d86e2d,001,2020-10-29_14h20.04.005,lextale_sp,2020.2.3,Win32,60,,,,,,,,,43,canela,1,,,1,1,0.45958,0,80,80,42,1,REAL,FALSA
,,,,,,,5f26bac88dfa6b4245d86e2d,001,2020-10-29_14h20.04.005,lextale_sp,2020.2.3,Win32,60,,,,,,,,,11,cenefa,1,,,1,1,0.237015,0,81,81,10,1,REAL,FALSA
,,,,,,,5f26bac88dfa6b4245d86e2d,001,2020-10-29_14h20.04.005,lextale_sp,2020.2.3,Win32,60,,,,,,,,,38,estornudar,1,,,1,1,0.017875,0,82,82,37,1,REAL,FALSA
,,,,,,,5f26bac88dfa6b4245d86e2d,001,2020-10-29_14h20.04.005,lextale_sp,2020.2.3,Win32,60,,,,,,,,,45,jilguero,1,,,1,1,1.209905,0,83,83,44,1,REAL,FALSA
,,,,,,,5f26bac88dfa6b4245d86e2d,001,2020-10-29_14h20.04.005,lextale_sp,2020.2.3,Win32,60,,,,,,,,,8,cadeña,0,,,1,0,0.76696,0,84,84,7,1,REAL,FALSA
,,,,,,,5f26bac88dfa6b4245d86e2d,001,2020-10-29_14h20.04.005,lextale_sp,2020.2.3,Win32,60,,,,,,,,,1,terzo,0,,,1,0,0.1018,0,85,85,0,1,REAL,FALSA
,,,,,,,5f26bac88dfa6b4245d86e2d,001,2020-10-29_14h20.04.005,lextale_sp,2020.2.3,Win32,60,,,,,,,,,2,pellizcar,1,,,1,1,0.15208,0,86,86,1,1,REAL,FALSA
,,,,,,,5f26bac88dfa6b4245d86e2d,001,2020-10-29_14h20.04.005,lextale_sp,2020.2.3,Win32,60,,,,,,,,,27,acutación,0,,,1,0,0.59173,0,87,87,26,1,REAL,FALSA
,,,,,,,5f26bac88dfa6b4245d86e2d,001,2020-10-29_14h20.04.005,lextale_sp,2020.2.3,Win32,60,,,,,,,,,65,bizcocho,1,,,1,1,1.36673,0,88,88,64,1,REAL,FALSA
,,,,,,,5f26bac88dfa6b4245d86e2d,001,2020-10-29_14h20.04.005,lextale_sp,2020.2.3,Win32,60,,,,,,,,,7,pésimo,1,,,1,1,0.713165,0,89,89,6,1,REAL,FALSA
