lextale_instructions_loop.thisRepN,lextale_instructions_loop.thisTrialN,lextale_instructions_loop.thisN,lextale_instructions_loop.thisIndex,lextale_instructions_loop.ran,instructions_text,continue_text,participant,session,date,expName,psychopyVersion,OS,frameRate,key_resp_lextale_practice.keys,key_resp_lextale_practice.corr,key_resp_lextale_practice.rt,lextale_practice_trials.thisRepN,lextale_practice_trials.thisTrialN,lextale_practice_trials.thisN,lextale_practice_trials.thisIndex,lextale_practice_trials.ran,stim,word,correct_response,prac_button_real,prac_button_false,key_resp_lextale_trial.keys,key_resp_lextale_trial.corr,key_resp_lextale_trial.rt,lextail_trials.thisRepN,lextail_trials.thisTrialN,lextail_trials.thisN,lextail_trials.thisIndex,lextail_trials.ran,button_real,button_false
0,0,0,0,1,"Este es un test de vocabulario en español. 
  
  A continuación vas a ver 90 secuencias de letras que parecen 'españolas'.
  
  Solo algunas de ellas son palabras de verdad.",(presiona la barra espaciadora para continuar),5f989fa02b5a611b2df1a305,001,2020-12-21_16h28.36.198,lextale_sp,2020.2.3,MacIntel,60,,,,,,,,,,,,,,,,,,,,,,,
0,1,1,1,1,"Por favor, señala las palabras que tú conoces (aquellas que estás convencido que son palabras españolas, incluso aunque no seas capaz de dar el significado preciso).",(presiona la barra espaciadora para continuar),5f989fa02b5a611b2df1a305,001,2020-12-21_16h28.36.198,lextale_sp,2020.2.3,MacIntel,60,,,,,,,,,,,,,,,,,,,,,,,
0,2,2,2,1,Pero cuidado: los errores se penalizan. Por eso no tiene sentido tratar de incrementar tu puntuación marcando como reales palabras que nunca has visto.,(presiona la barra espaciadora para continuar),5f989fa02b5a611b2df1a305,001,2020-12-21_16h28.36.198,lextale_sp,2020.2.3,MacIntel,60,,,,,,,,,,,,,,,,,,,,,,,
0,3,3,3,1,"Presiona la tecla 1 si piensas que es una palabra real y la tecla 
  0 si piensas que es una palabra falsa. 
  
  Vamos a practicar un poco...",(presiona la barra espaciadora para continuar),5f989fa02b5a611b2df1a305,001,2020-12-21_16h28.36.198,lextale_sp,2020.2.3,MacIntel,60,,,,,,,,,,,,,,,,,,,,,,,
,,,,,,,5f989fa02b5a611b2df1a305,001,2020-12-21_16h28.36.198,lextale_sp,2020.2.3,MacIntel,60,0,1,3.300885,0,0,0,0,1,0,depiste,0,REAL,FALSA,,,,,,,,,,
,,,,,,,5f989fa02b5a611b2df1a305,001,2020-12-21_16h28.36.198,lextale_sp,2020.2.3,MacIntel,60,1,1,0.79005,0,1,1,1,1,0,sí,1,REAL,FALSA,,,,,,,,,,
,,,,,,,5f989fa02b5a611b2df1a305,001,2020-12-21_16h28.36.198,lextale_sp,2020.2.3,MacIntel,60,0,1,1.105095,0,2,2,2,1,0,coné,0,REAL,FALSA,,,,,,,,,,
,,,,,,,5f989fa02b5a611b2df1a305,001,2020-12-21_16h28.36.198,lextale_sp,2020.2.3,MacIntel,60,0,1,1.10336,0,3,3,3,1,0,calpar,0,REAL,FALSA,,,,,,,,,,
,,,,,,,5f989fa02b5a611b2df1a305,001,2020-12-21_16h28.36.198,lextale_sp,2020.2.3,MacIntel,60,0,1,0.96312,0,4,4,4,1,0,joten,0,REAL,FALSA,,,,,,,,,,
,,,,,,,5f989fa02b5a611b2df1a305,001,2020-12-21_16h28.36.198,lextale_sp,2020.2.3,MacIntel,60,1,1,0.853025,0,5,5,5,1,0,sacapuntas,1,REAL,FALSA,,,,,,,,,,
,,,,,,,5f989fa02b5a611b2df1a305,001,2020-12-21_16h28.36.198,lextale_sp,2020.2.3,MacIntel,60,0,1,1.010405,0,6,6,6,1,0,priba,0,REAL,FALSA,,,,,,,,,,
,,,,,,,5f989fa02b5a611b2df1a305,001,2020-12-21_16h28.36.198,lextale_sp,2020.2.3,MacIntel,60,0,1,1.03339,0,7,7,7,1,0,pelasula,0,REAL,FALSA,,,,,,,,,,
,,,,,,,5f989fa02b5a611b2df1a305,001,2020-12-21_16h28.36.198,lextale_sp,2020.2.3,MacIntel,60,1,1,0.681685,0,8,8,8,1,0,bien,1,REAL,FALSA,,,,,,,,,,
,,,,,,,5f989fa02b5a611b2df1a305,001,2020-12-21_16h28.36.198,lextale_sp,2020.2.3,MacIntel,60,1,1,0.691295,0,9,9,9,1,0,casa,1,REAL,FALSA,,,,,,,,,,
,,,,,,,5f989fa02b5a611b2df1a305,001,2020-12-21_16h28.36.198,lextale_sp,2020.2.3,MacIntel,60,1,0,3.09714,0,10,10,10,1,0,lejo,0,REAL,FALSA,,,,,,,,,,
,,,,,,,5f989fa02b5a611b2df1a305,001,2020-12-21_16h28.36.198,lextale_sp,2020.2.3,MacIntel,60,0,1,1.731055,0,11,11,11,1,0,pretantas,0,REAL,FALSA,,,,,,,,,,
,,,,,,,5f989fa02b5a611b2df1a305,001,2020-12-21_16h28.36.198,lextale_sp,2020.2.3,MacIntel,60,,,,,,,,,66,hacido,0,,,0,1,2.863095,0,0,0,65,1,REAL,FALSA
,,,,,,,5f989fa02b5a611b2df1a305,001,2020-12-21_16h28.36.198,lextale_sp,2020.2.3,MacIntel,60,,,,,,,,,21,capillo,0,,,1,0,1.71597,0,1,1,20,1,REAL,FALSA
,,,,,,,5f989fa02b5a611b2df1a305,001,2020-12-21_16h28.36.198,lextale_sp,2020.2.3,MacIntel,60,,,,,,,,,9,hacha,1,,,1,1,1.6685,0,2,2,8,1,REAL,FALSA
,,,,,,,5f989fa02b5a611b2df1a305,001,2020-12-21_16h28.36.198,lextale_sp,2020.2.3,MacIntel,60,,,,,,,,,33,pauca,0,,,0,1,1.80339,0,3,3,32,1,REAL,FALSA
,,,,,,,5f989fa02b5a611b2df1a305,001,2020-12-21_16h28.36.198,lextale_sp,2020.2.3,MacIntel,60,,,,,,,,,18,arsa,0,,,0,1,1.823085,0,4,4,17,1,REAL,FALSA
,,,,,,,5f989fa02b5a611b2df1a305,001,2020-12-21_16h28.36.198,lextale_sp,2020.2.3,MacIntel,60,,,,,,,,,75,yacer,1,,,0,0,1.0946,0,5,5,74,1,REAL,FALSA
,,,,,,,5f989fa02b5a611b2df1a305,001,2020-12-21_16h28.36.198,lextale_sp,2020.2.3,MacIntel,60,,,,,,,,,45,jilguero,1,,,0,0,1.03368,0,6,6,44,1,REAL,FALSA
,,,,,,,5f989fa02b5a611b2df1a305,001,2020-12-21_16h28.36.198,lextale_sp,2020.2.3,MacIntel,60,,,,,,,,,59,besar,1,,,1,1,0.76455,0,7,7,58,1,REAL,FALSA
,,,,,,,5f989fa02b5a611b2df1a305,001,2020-12-21_16h28.36.198,lextale_sp,2020.2.3,MacIntel,60,,,,,,,,,38,estornudar,1,,,1,1,0.97363,0,8,8,37,1,REAL,FALSA
,,,,,,,5f989fa02b5a611b2df1a305,001,2020-12-21_16h28.36.198,lextale_sp,2020.2.3,MacIntel,60,,,,,,,,,14,yunque,1,,,0,0,1.520895,0,9,9,13,1,REAL,FALSA
,,,,,,,5f989fa02b5a611b2df1a305,001,2020-12-21_16h28.36.198,lextale_sp,2020.2.3,MacIntel,60,,,,,,,,,37,granuja,1,,,0,0,1.28822,0,10,10,36,1,REAL,FALSA
,,,,,,,5f989fa02b5a611b2df1a305,001,2020-12-21_16h28.36.198,lextale_sp,2020.2.3,MacIntel,60,,,,,,,,,54,fomentar,1,,,1,1,0.84752,0,11,11,53,1,REAL,FALSA
,,,,,,,5f989fa02b5a611b2df1a305,001,2020-12-21_16h28.36.198,lextale_sp,2020.2.3,MacIntel,60,,,,,,,,,65,bizcocho,1,,,1,1,0.940865,0,12,12,64,1,REAL,FALSA
,,,,,,,5f989fa02b5a611b2df1a305,001,2020-12-21_16h28.36.198,lextale_sp,2020.2.3,MacIntel,60,,,,,,,,,90,clavel,1,,,1,1,0.74862,0,13,13,89,1,REAL,FALSA
,,,,,,,5f989fa02b5a611b2df1a305,001,2020-12-21_16h28.36.198,lextale_sp,2020.2.3,MacIntel,60,,,,,,,,,17,floroso,0,,,0,1,1.0907,0,14,14,16,1,REAL,FALSA
,,,,,,,5f989fa02b5a611b2df1a305,001,2020-12-21_16h28.36.198,lextale_sp,2020.2.3,MacIntel,60,,,,,,,,,10,antar,0,,,0,1,0.89629,0,15,15,9,1,REAL,FALSA
,,,,,,,5f989fa02b5a611b2df1a305,001,2020-12-21_16h28.36.198,lextale_sp,2020.2.3,MacIntel,60,,,,,,,,,74,cintro,0,,,0,1,1.13605,0,16,16,73,1,REAL,FALSA
,,,,,,,5f989fa02b5a611b2df1a305,001,2020-12-21_16h28.36.198,lextale_sp,2020.2.3,MacIntel,60,,,,,,,,,48,ladrón,1,,,1,1,0.76014,0,17,17,47,1,REAL,FALSA
,,,,,,,5f989fa02b5a611b2df1a305,001,2020-12-21_16h28.36.198,lextale_sp,2020.2.3,MacIntel,60,,,,,,,,,76,atar,1,,,0,0,0.71593,0,18,18,75,1,REAL,FALSA
,,,,,,,5f989fa02b5a611b2df1a305,001,2020-12-21_16h28.36.198,lextale_sp,2020.2.3,MacIntel,60,,,,,,,,,80,hormiga,1,,,1,1,0.87125,0,19,19,79,1,REAL,FALSA
,,,,,,,5f989fa02b5a611b2df1a305,001,2020-12-21_16h28.36.198,lextale_sp,2020.2.3,MacIntel,60,,,,,,,,,84,escuto,0,,,0,1,1.34596,0,20,20,83,1,REAL,FALSA
,,,,,,,5f989fa02b5a611b2df1a305,001,2020-12-21_16h28.36.198,lextale_sp,2020.2.3,MacIntel,60,,,,,,,,,73,hervidor,1,,,1,1,1.06126,0,21,21,72,1,REAL,FALSA
,,,,,,,5f989fa02b5a611b2df1a305,001,2020-12-21_16h28.36.198,lextale_sp,2020.2.3,MacIntel,60,,,,,,,,,46,martillo,1,,,1,1,0.83781,0,22,22,45,1,REAL,FALSA
,,,,,,,5f989fa02b5a611b2df1a305,001,2020-12-21_16h28.36.198,lextale_sp,2020.2.3,MacIntel,60,,,,,,,,,7,pésimo,1,,,0,0,2.426915,0,23,23,6,1,REAL,FALSA
,,,,,,,5f989fa02b5a611b2df1a305,001,2020-12-21_16h28.36.198,lextale_sp,2020.2.3,MacIntel,60,,,,,,,,,78,frondoso,1,,,0,0,0.84965,0,24,24,77,1,REAL,FALSA
,,,,,,,5f989fa02b5a611b2df1a305,001,2020-12-21_16h28.36.198,lextale_sp,2020.2.3,MacIntel,60,,,,,,,,,83,guante,1,,,1,1,0.72292,0,25,25,82,1,REAL,FALSA
,,,,,,,5f989fa02b5a611b2df1a305,001,2020-12-21_16h28.36.198,lextale_sp,2020.2.3,MacIntel,60,,,,,,,,,53,vegada,0,,,0,1,0.897395,0,26,26,52,1,REAL,FALSA
,,,,,,,5f989fa02b5a611b2df1a305,001,2020-12-21_16h28.36.198,lextale_sp,2020.2.3,MacIntel,60,,,,,,,,,61,seda,1,,,1,1,0.696195,0,27,27,60,1,REAL,FALSA
,,,,,,,5f989fa02b5a611b2df1a305,001,2020-12-21_16h28.36.198,lextale_sp,2020.2.3,MacIntel,60,,,,,,,,,52,camisa,1,,,1,1,0.760895,0,28,28,51,1,REAL,FALSA
,,,,,,,5f989fa02b5a611b2df1a305,001,2020-12-21_16h28.36.198,lextale_sp,2020.2.3,MacIntel,60,,,,,,,,,40,alfombra,1,,,1,1,0.87941,0,29,29,39,1,REAL,FALSA
,,,,,,,5f989fa02b5a611b2df1a305,001,2020-12-21_16h28.36.198,lextale_sp,2020.2.3,MacIntel,60,,,,,,,,,27,acutación,0,,,0,1,1.418605,0,30,30,26,1,REAL,FALSA
,,,,,,,5f989fa02b5a611b2df1a305,001,2020-12-21_16h28.36.198,lextale_sp,2020.2.3,MacIntel,60,,,,,,,,,49,ganar,1,,,1,1,1.07324,0,31,31,48,1,REAL,FALSA
,,,,,,,5f989fa02b5a611b2df1a305,001,2020-12-21_16h28.36.198,lextale_sp,2020.2.3,MacIntel,60,,,,,,,,,55,nevar,1,,,1,1,0.80733,0,32,32,54,1,REAL,FALSA
,,,,,,,5f989fa02b5a611b2df1a305,001,2020-12-21_16h28.36.198,lextale_sp,2020.2.3,MacIntel,60,,,,,,,,,47,cartinar,0,,,0,1,0.89678,0,33,33,46,1,REAL,FALSA
,,,,,,,5f989fa02b5a611b2df1a305,001,2020-12-21_16h28.36.198,lextale_sp,2020.2.3,MacIntel,60,,,,,,,,,57,tacaño,1,,,1,1,1.0161,0,34,34,56,1,REAL,FALSA
,,,,,,,5f989fa02b5a611b2df1a305,001,2020-12-21_16h28.36.198,lextale_sp,2020.2.3,MacIntel,60,,,,,,,,,85,laúd,1,,,0,0,0.934405,0,35,35,84,1,REAL,FALSA
,,,,,,,5f989fa02b5a611b2df1a305,001,2020-12-21_16h28.36.198,lextale_sp,2020.2.3,MacIntel,60,,,,,,,,,26,secuestro,1,,,1,1,0.76593,0,36,36,25,1,REAL,FALSA
,,,,,,,5f989fa02b5a611b2df1a305,001,2020-12-21_16h28.36.198,lextale_sp,2020.2.3,MacIntel,60,,,,,,,,,56,musgo,1,,,1,1,0.847315,0,37,37,55,1,REAL,FALSA
,,,,,,,5f989fa02b5a611b2df1a305,001,2020-12-21_16h28.36.198,lextale_sp,2020.2.3,MacIntel,60,,,,,,,,,29,decar,0,,,0,1,1.16929,0,38,38,28,1,REAL,FALSA
,,,,,,,5f989fa02b5a611b2df1a305,001,2020-12-21_16h28.36.198,lextale_sp,2020.2.3,MacIntel,60,,,,,,,,,23,lampera,0,,,0,1,1.787355,0,39,39,22,1,REAL,FALSA
,,,,,,,5f989fa02b5a611b2df1a305,001,2020-12-21_16h28.36.198,lextale_sp,2020.2.3,MacIntel,60,,,,,,,,,70,temblo,0,,,0,1,0.85005,0,40,40,69,1,REAL,FALSA
,,,,,,,5f989fa02b5a611b2df1a305,001,2020-12-21_16h28.36.198,lextale_sp,2020.2.3,MacIntel,60,,,,,,,,,77,tiburón,1,,,1,1,0.64863,0,41,41,76,1,REAL,FALSA
,,,,,,,5f989fa02b5a611b2df1a305,001,2020-12-21_16h28.36.198,lextale_sp,2020.2.3,MacIntel,60,,,,,,,,,68,alegre,1,,,1,1,0.66326,0,42,42,67,1,REAL,FALSA
,,,,,,,5f989fa02b5a611b2df1a305,001,2020-12-21_16h28.36.198,lextale_sp,2020.2.3,MacIntel,60,,,,,,,,,12,asesinato,1,,,1,1,0.825305,0,43,43,11,1,REAL,FALSA
,,,,,,,5f989fa02b5a611b2df1a305,001,2020-12-21_16h28.36.198,lextale_sp,2020.2.3,MacIntel,60,,,,,,,,,71,polvoriento,1,,,0,0,1.090355,0,44,44,70,1,REAL,FALSA
,,,,,,,5f989fa02b5a611b2df1a305,001,2020-12-21_16h28.36.198,lextale_sp,2020.2.3,MacIntel,60,,,,,,,,,3,pulmones,1,,,1,1,0.997215,0,45,45,2,1,REAL,FALSA
,,,,,,,5f989fa02b5a611b2df1a305,001,2020-12-21_16h28.36.198,lextale_sp,2020.2.3,MacIntel,60,,,,,,,,,81,pozo,1,,,1,1,0.823625,0,46,46,80,1,REAL,FALSA
,,,,,,,5f989fa02b5a611b2df1a305,001,2020-12-21_16h28.36.198,lextale_sp,2020.2.3,MacIntel,60,,,,,,,,,19,brecedad,0,,,0,1,0.81132,0,47,47,18,1,REAL,FALSA
,,,,,,,5f989fa02b5a611b2df1a305,001,2020-12-21_16h28.36.198,lextale_sp,2020.2.3,MacIntel,60,,,,,,,,,69,engatusar,1,,,0,0,1.270945,0,48,48,68,1,REAL,FALSA
,,,,,,,5f989fa02b5a611b2df1a305,001,2020-12-21_16h28.36.198,lextale_sp,2020.2.3,MacIntel,60,,,,,,,,,4,batillón,0,,,1,0,0.77396,0,49,49,3,1,REAL,FALSA
,,,,,,,5f989fa02b5a611b2df1a305,001,2020-12-21_16h28.36.198,lextale_sp,2020.2.3,MacIntel,60,,,,,,,,,20,ávido,1,,,1,1,0.890965,0,50,50,19,1,REAL,FALSA
,,,,,,,5f989fa02b5a611b2df1a305,001,2020-12-21_16h28.36.198,lextale_sp,2020.2.3,MacIntel,60,,,,,,,,,63,esposante,0,,,0,1,1.067875,0,51,51,62,1,REAL,FALSA
,,,,,,,5f989fa02b5a611b2df1a305,001,2020-12-21_16h28.36.198,lextale_sp,2020.2.3,MacIntel,60,,,,,,,,,1,terzo,0,,,0,1,0.936465,0,52,52,0,1,REAL,FALSA
,,,,,,,5f989fa02b5a611b2df1a305,001,2020-12-21_16h28.36.198,lextale_sp,2020.2.3,MacIntel,60,,,,,,,,,62,flaco,1,,,1,1,0.714535,0,53,53,61,1,REAL,FALSA
,,,,,,,5f989fa02b5a611b2df1a305,001,2020-12-21_16h28.36.198,lextale_sp,2020.2.3,MacIntel,60,,,,,,,,,8,cadeña,0,,,0,1,1.801365,0,54,54,7,1,REAL,FALSA
,,,,,,,5f989fa02b5a611b2df1a305,001,2020-12-21_16h28.36.198,lextale_sp,2020.2.3,MacIntel,60,,,,,,,,,44,cuchara,1,,,1,1,0.832535,0,55,55,43,1,REAL,FALSA
,,,,,,,5f989fa02b5a611b2df1a305,001,2020-12-21_16h28.36.198,lextale_sp,2020.2.3,MacIntel,60,,,,,,,,,86,barato,1,,,1,1,0.81528,0,56,56,85,1,REAL,FALSA
,,,,,,,5f989fa02b5a611b2df1a305,001,2020-12-21_16h28.36.198,lextale_sp,2020.2.3,MacIntel,60,,,,,,,,,16,abracer,0,,,0,1,1.51229,0,57,57,15,1,REAL,FALSA
,,,,,,,5f989fa02b5a611b2df1a305,001,2020-12-21_16h28.36.198,lextale_sp,2020.2.3,MacIntel,60,,,,,,,,,39,torpe,1,,,1,1,1.13845,0,58,58,38,1,REAL,FALSA
,,,,,,,5f989fa02b5a611b2df1a305,001,2020-12-21_16h28.36.198,lextale_sp,2020.2.3,MacIntel,60,,,,,,,,,35,rompido,0,,,0,1,1.1555,0,59,59,34,1,REAL,FALSA
,,,,,,,5f989fa02b5a611b2df1a305,001,2020-12-21_16h28.36.198,lextale_sp,2020.2.3,MacIntel,60,,,,,,,,,60,matar,1,,,1,1,0.73449,0,60,60,59,1,REAL,FALSA
,,,,,,,5f989fa02b5a611b2df1a305,001,2020-12-21_16h28.36.198,lextale_sp,2020.2.3,MacIntel,60,,,,,,,,,15,regar,1,,,1,1,0.962185,0,61,61,14,1,REAL,FALSA
,,,,,,,5f989fa02b5a611b2df1a305,001,2020-12-21_16h28.36.198,lextale_sp,2020.2.3,MacIntel,60,,,,,,,,,28,merodear,1,,,0,0,1.117195,0,62,62,27,1,REAL,FALSA
,,,,,,,5f989fa02b5a611b2df1a305,001,2020-12-21_16h28.36.198,lextale_sp,2020.2.3,MacIntel,60,,,,,,,,,51,candado,1,,,1,1,2.87776,0,63,63,50,1,REAL,FALSA
,,,,,,,5f989fa02b5a611b2df1a305,001,2020-12-21_16h28.36.198,lextale_sp,2020.2.3,MacIntel,60,,,,,,,,,32,fatacidad,0,,,0,1,1.08572,0,64,64,31,1,REAL,FALSA
,,,,,,,5f989fa02b5a611b2df1a305,001,2020-12-21_16h28.36.198,lextale_sp,2020.2.3,MacIntel,60,,,,,,,,,5,zapato,1,,,1,1,0.759315,0,65,65,4,1,REAL,FALSA
,,,,,,,5f989fa02b5a611b2df1a305,001,2020-12-21_16h28.36.198,lextale_sp,2020.2.3,MacIntel,60,,,,,,,,,2,pellizcar,1,,,0,0,0.813005,0,66,66,1,1,REAL,FALSA
,,,,,,,5f989fa02b5a611b2df1a305,001,2020-12-21_16h28.36.198,lextale_sp,2020.2.3,MacIntel,60,,,,,,,,,6,tergiversar,1,,,0,0,2.007385,0,67,67,5,1,REAL,FALSA
,,,,,,,5f989fa02b5a611b2df1a305,001,2020-12-21_16h28.36.198,lextale_sp,2020.2.3,MacIntel,60,,,,,,,,,82,empirador,0,,,1,0,0.770625,0,68,68,81,1,REAL,FALSA
,,,,,,,5f989fa02b5a611b2df1a305,001,2020-12-21_16h28.36.198,lextale_sp,2020.2.3,MacIntel,60,,,,,,,,,42,cadallo,0,,,0,1,1.29353,0,69,69,41,1,REAL,FALSA
,,,,,,,5f989fa02b5a611b2df1a305,001,2020-12-21_16h28.36.198,lextale_sp,2020.2.3,MacIntel,60,,,,,,,,,36,loro,1,,,1,1,0.928595,0,70,70,35,1,REAL,FALSA
,,,,,,,5f989fa02b5a611b2df1a305,001,2020-12-21_16h28.36.198,lextale_sp,2020.2.3,MacIntel,60,,,,,,,,,13,helar,1,,,1,1,1.17329,0,71,71,12,1,REAL,FALSA
,,,,,,,5f989fa02b5a611b2df1a305,001,2020-12-21_16h28.36.198,lextale_sp,2020.2.3,MacIntel,60,,,,,,,,,22,lacayo,1,,,0,0,2.36681,0,72,72,21,1,REAL,FALSA
,,,,,,,5f989fa02b5a611b2df1a305,001,2020-12-21_16h28.36.198,lextale_sp,2020.2.3,MacIntel,60,,,,,,,,,41,rebuscar,1,,,1,1,1.224325,0,73,73,40,1,REAL,FALSA
,,,,,,,5f989fa02b5a611b2df1a305,001,2020-12-21_16h28.36.198,lextale_sp,2020.2.3,MacIntel,60,,,,,,,,,87,grodo,0,,,0,1,0.829375,0,74,74,86,1,REAL,FALSA
,,,,,,,5f989fa02b5a611b2df1a305,001,2020-12-21_16h28.36.198,lextale_sp,2020.2.3,MacIntel,60,,,,,,,,,88,acantilado,1,,,0,0,1.27599,0,75,75,87,1,REAL,FALSA
,,,,,,,5f989fa02b5a611b2df1a305,001,2020-12-21_16h28.36.198,lextale_sp,2020.2.3,MacIntel,60,,,,,,,,,89,prisa,1,,,1,1,0.75792,0,76,76,88,1,REAL,FALSA
,,,,,,,5f989fa02b5a611b2df1a305,001,2020-12-21_16h28.36.198,lextale_sp,2020.2.3,MacIntel,60,,,,,,,,,79,tropaje,0,,,0,1,0.89995,0,77,77,78,1,REAL,FALSA
,,,,,,,5f989fa02b5a611b2df1a305,001,2020-12-21_16h28.36.198,lextale_sp,2020.2.3,MacIntel,60,,,,,,,,,67,cabello,1,,,1,1,0.7472,0,78,78,66,1,REAL,FALSA
,,,,,,,5f989fa02b5a611b2df1a305,001,2020-12-21_16h28.36.198,lextale_sp,2020.2.3,MacIntel,60,,,,,,,,,64,orgulloso,1,,,1,1,0.785045,0,79,79,63,1,REAL,FALSA
,,,,,,,5f989fa02b5a611b2df1a305,001,2020-12-21_16h28.36.198,lextale_sp,2020.2.3,MacIntel,60,,,,,,,,,50,flamida,0,,,0,1,0.85038,0,80,80,49,1,REAL,FALSA
,,,,,,,5f989fa02b5a611b2df1a305,001,2020-12-21_16h28.36.198,lextale_sp,2020.2.3,MacIntel,60,,,,,,,,,72,pemición,0,,,0,1,0.933755,0,81,81,71,1,REAL,FALSA
,,,,,,,5f989fa02b5a611b2df1a305,001,2020-12-21_16h28.36.198,lextale_sp,2020.2.3,MacIntel,60,,,,,,,,,43,canela,1,,,1,1,0.75528,0,82,82,42,1,REAL,FALSA
,,,,,,,5f989fa02b5a611b2df1a305,001,2020-12-21_16h28.36.198,lextale_sp,2020.2.3,MacIntel,60,,,,,,,,,11,cenefa,1,,,0,0,0.878355,0,83,83,10,1,REAL,FALSA
,,,,,,,5f989fa02b5a611b2df1a305,001,2020-12-21_16h28.36.198,lextale_sp,2020.2.3,MacIntel,60,,,,,,,,,34,aviso,1,,,1,1,0.63101,0,84,84,33,1,REAL,FALSA
,,,,,,,5f989fa02b5a611b2df1a305,001,2020-12-21_16h28.36.198,lextale_sp,2020.2.3,MacIntel,60,,,,,,,,,31,pandilla,1,,,0,0,2.003475,0,85,85,30,1,REAL,FALSA
,,,,,,,5f989fa02b5a611b2df1a305,001,2020-12-21_16h28.36.198,lextale_sp,2020.2.3,MacIntel,60,,,,,,,,,24,látigo,1,,,0,0,1.54936,0,86,86,23,1,REAL,FALSA
,,,,,,,5f989fa02b5a611b2df1a305,001,2020-12-21_16h28.36.198,lextale_sp,2020.2.3,MacIntel,60,,,,,,,,,58,plaudir,0,,,0,1,1.702245,0,87,87,57,1,REAL,FALSA
,,,,,,,5f989fa02b5a611b2df1a305,001,2020-12-21_16h28.36.198,lextale_sp,2020.2.3,MacIntel,60,,,,,,,,,25,bisagra,1,,,0,0,0.929925,0,88,88,24,1,REAL,FALSA
,,,,,,,5f989fa02b5a611b2df1a305,001,2020-12-21_16h28.36.198,lextale_sp,2020.2.3,MacIntel,60,,,,,,,,,30,alardio,0,,,0,1,0.707325,0,89,89,29,1,REAL,FALSA
