resp.keys,resp.rt,trials.thisRepN,trials.thisTrialN,trials.thisN,trials.thisIndex,trials.ran,stimuli,participant,date,expName,psychopyVersion,OS,frameRate,gotResponse.keys,gotResponse.rt,resp_2.keys,resp_2.rt,trials_2.thisRepN,trials_2.thisTrialN,trials_2.thisN,trials_2.thisIndex,trials_2.ran,key_resp_3.keys,key_resp_3.corr,key_resp_3.rt,trials_4.thisRepN,trials_4.thisTrialN,trials_4.thisN,trials_4.thisIndex,trials_4.ran,resp_3.keys,resp_3.rt,trials_3.thisRepN,trials_3.thisTrialN,trials_3.thisN,trials_3.thisIndex,trials_3.ran,key_resp_2.keys,key_resp_2.rt,trials_5.thisRepN,trials_5.thisTrialN,trials_5.thisN,trials_5.thisIndex,trials_5.ran,key_resp.keys,key_resp.rt
left,7.368,0,0,0,0,1,stim/VC_01.wav,5d159d0a8078020016aa60b9,2021-01-20_13h13.05.364,English_step1,2020.2.3,Win32,60,,,,,,,,,,,,,,,,,,,,,,,,,,,,,,,,,
right,3.691,0,1,1,1,1,stim/VC_11.wav,5d159d0a8078020016aa60b9,2021-01-20_13h13.05.364,English_step1,2020.2.3,Win32,60,,,,,,,,,,,,,,,,,,,,,,,,,,,,,,,,,
,,,,,,,stim/VC_02.wav,5d159d0a8078020016aa60b9,2021-01-20_13h13.05.364,English_step1,2020.2.3,Win32,60,space,8.531,left,1.412,0,0,0,1,1,,,,,,,,,,,,,,,,,,,,,,,,
,,,,,,,stim/VC_01.wav,5d159d0a8078020016aa60b9,2021-01-20_13h13.05.364,English_step1,2020.2.3,Win32,60,,,left,0.778,0,1,1,0,1,,,,,,,,,,,,,,,,,,,,,,,,
,,,,,,,stim/VC_09.wav,5d159d0a8078020016aa60b9,2021-01-20_13h13.05.364,English_step1,2020.2.3,Win32,60,,,right,0.779,0,2,2,8,1,,,,,,,,,,,,,,,,,,,,,,,,
,,,,,,,stim/VC_03.wav,5d159d0a8078020016aa60b9,2021-01-20_13h13.05.364,English_step1,2020.2.3,Win32,60,,,left,0.623,0,3,3,2,1,,,,,,,,,,,,,,,,,,,,,,,,
,,,,,,,stim/VC_05.wav,5d159d0a8078020016aa60b9,2021-01-20_13h13.05.364,English_step1,2020.2.3,Win32,60,,,right,0.825,0,4,4,4,1,,,,,,,,,,,,,,,,,,,,,,,,
,,,,,,,stim/VC_06.wav,5d159d0a8078020016aa60b9,2021-01-20_13h13.05.364,English_step1,2020.2.3,Win32,60,,,right,0.62,0,5,5,5,1,,,,,,,,,,,,,,,,,,,,,,,,
,,,,,,,stim/VC_11.wav,5d159d0a8078020016aa60b9,2021-01-20_13h13.05.364,English_step1,2020.2.3,Win32,60,,,right,0.494,0,6,6,10,1,,,,,,,,,,,,,,,,,,,,,,,,
,,,,,,,stim/VC_07.wav,5d159d0a8078020016aa60b9,2021-01-20_13h13.05.364,English_step1,2020.2.3,Win32,60,,,right,0.481,0,7,7,6,1,,,,,,,,,,,,,,,,,,,,,,,,
,,,,,,,stim/VC_10.wav,5d159d0a8078020016aa60b9,2021-01-20_13h13.05.364,English_step1,2020.2.3,Win32,60,,,right,0.391,0,8,8,9,1,,,,,,,,,,,,,,,,,,,,,,,,
,,,,,,,stim/VC_08.wav,5d159d0a8078020016aa60b9,2021-01-20_13h13.05.364,English_step1,2020.2.3,Win32,60,,,right,0.419,0,9,9,7,1,,,,,,,,,,,,,,,,,,,,,,,,
,,,,,,,stim/VC_04.wav,5d159d0a8078020016aa60b9,2021-01-20_13h13.05.364,English_step1,2020.2.3,Win32,60,,,left,0.542,0,10,10,3,1,,,,,,,,,,,,,,,,,,,,,,,,
,,,,,,,stim/VC_09.wav,5d159d0a8078020016aa60b9,2021-01-20_13h13.05.364,English_step1,2020.2.3,Win32,60,,,right,0.528,1,0,11,8,1,,,,,,,,,,,,,,,,,,,,,,,,
,,,,,,,stim/VC_05.wav,5d159d0a8078020016aa60b9,2021-01-20_13h13.05.364,English_step1,2020.2.3,Win32,60,,,left,0.463,1,1,12,4,1,,,,,,,,,,,,,,,,,,,,,,,,
,,,,,,,stim/VC_10.wav,5d159d0a8078020016aa60b9,2021-01-20_13h13.05.364,English_step1,2020.2.3,Win32,60,,,right,0.514,1,2,13,9,1,,,,,,,,,,,,,,,,,,,,,,,,
,,,,,,,stim/VC_06.wav,5d159d0a8078020016aa60b9,2021-01-20_13h13.05.364,English_step1,2020.2.3,Win32,60,,,left,3.272,1,3,14,5,1,,,,,,,,,,,,,,,,,,,,,,,,
,,,,,,,stim/VC_11.wav,5d159d0a8078020016aa60b9,2021-01-20_13h13.05.364,English_step1,2020.2.3,Win32,60,,,right,0.618,1,4,15,10,1,,,,,,,,,,,,,,,,,,,,,,,,
,,,,,,,stim/VC_02.wav,5d159d0a8078020016aa60b9,2021-01-20_13h13.05.364,English_step1,2020.2.3,Win32,60,,,left,0.758,1,5,16,1,1,,,,,,,,,,,,,,,,,,,,,,,,
,,,,,,,stim/VC_03.wav,5d159d0a8078020016aa60b9,2021-01-20_13h13.05.364,English_step1,2020.2.3,Win32,60,,,left,0.45,1,6,17,2,1,,,,,,,,,,,,,,,,,,,,,,,,
,,,,,,,stim/VC_08.wav,5d159d0a8078020016aa60b9,2021-01-20_13h13.05.364,English_step1,2020.2.3,Win32,60,,,right,0.65,1,7,18,7,1,,,,,,,,,,,,,,,,,,,,,,,,
,,,,,,,stim/VC_01.wav,5d159d0a8078020016aa60b9,2021-01-20_13h13.05.364,English_step1,2020.2.3,Win32,60,,,left,0.535,1,8,19,0,1,,,,,,,,,,,,,,,,,,,,,,,,
,,,,,,,stim/VC_07.wav,5d159d0a8078020016aa60b9,2021-01-20_13h13.05.364,English_step1,2020.2.3,Win32,60,,,right,0.541,1,9,20,6,1,,,,,,,,,,,,,,,,,,,,,,,,
,,,,,,,stim/VC_04.wav,5d159d0a8078020016aa60b9,2021-01-20_13h13.05.364,English_step1,2020.2.3,Win32,60,,,left,0.912,1,10,21,3,1,,,,,,,,,,,,,,,,,,,,,,,,
,,,,,,,stim/VC_11.wav,5d159d0a8078020016aa60b9,2021-01-20_13h13.05.364,English_step1,2020.2.3,Win32,60,,,right,0.555,2,0,22,10,1,,,,,,,,,,,,,,,,,,,,,,,,
,,,,,,,stim/VC_05.wav,5d159d0a8078020016aa60b9,2021-01-20_13h13.05.364,English_step1,2020.2.3,Win32,60,,,left,0.67,2,1,23,4,1,,,,,,,,,,,,,,,,,,,,,,,,
,,,,,,,stim/VC_10.wav,5d159d0a8078020016aa60b9,2021-01-20_13h13.05.364,English_step1,2020.2.3,Win32,60,,,right,0.326,2,2,24,9,1,,,,,,,,,,,,,,,,,,,,,,,,
,,,,,,,stim/VC_02.wav,5d159d0a8078020016aa60b9,2021-01-20_13h13.05.364,English_step1,2020.2.3,Win32,60,,,left,0.303,2,3,25,1,1,,,,,,,,,,,,,,,,,,,,,,,,
,,,,,,,stim/VC_01.wav,5d159d0a8078020016aa60b9,2021-01-20_13h13.05.364,English_step1,2020.2.3,Win32,60,,,left,0.432,2,4,26,0,1,,,,,,,,,,,,,,,,,,,,,,,,
,,,,,,,stim/VC_09.wav,5d159d0a8078020016aa60b9,2021-01-20_13h13.05.364,English_step1,2020.2.3,Win32,60,,,right,0.455,2,5,27,8,1,,,,,,,,,,,,,,,,,,,,,,,,
,,,,,,,stim/VC_06.wav,5d159d0a8078020016aa60b9,2021-01-20_13h13.05.364,English_step1,2020.2.3,Win32,60,,,right,0.722,2,6,28,5,1,,,,,,,,,,,,,,,,,,,,,,,,
,,,,,,,stim/VC_07.wav,5d159d0a8078020016aa60b9,2021-01-20_13h13.05.364,English_step1,2020.2.3,Win32,60,,,right,1.111,2,7,29,6,1,,,,,,,,,,,,,,,,,,,,,,,,
,,,,,,,stim/VC_08.wav,5d159d0a8078020016aa60b9,2021-01-20_13h13.05.364,English_step1,2020.2.3,Win32,60,,,right,0.594,2,8,30,7,1,,,,,,,,,,,,,,,,,,,,,,,,
,,,,,,,stim/VC_03.wav,5d159d0a8078020016aa60b9,2021-01-20_13h13.05.364,English_step1,2020.2.3,Win32,60,,,left,0.52,2,9,31,2,1,,,,,,,,,,,,,,,,,,,,,,,,
,,,,,,,stim/VC_04.wav,5d159d0a8078020016aa60b9,2021-01-20_13h13.05.364,English_step1,2020.2.3,Win32,60,,,left,0.465,2,10,32,3,1,,,,,,,,,,,,,,,,,,,,,,,,
,,,,,,,stim/VC_04.wav,5d159d0a8078020016aa60b9,2021-01-20_13h13.05.364,English_step1,2020.2.3,Win32,60,,,left,2.377,,,,,,4,0,3.853,0,0,0,3,1,,,,,,,,,,,,,,,,
,,,,,,,stim/VC_03.wav,5d159d0a8078020016aa60b9,2021-01-20_13h13.05.364,English_step1,2020.2.3,Win32,60,,,left,0.463,,,,,,,,,0,1,1,2,1,,,,,,,,,,,,,,,,
,,,,,,,stim/VC_01.wav,5d159d0a8078020016aa60b9,2021-01-20_13h13.05.364,English_step1,2020.2.3,Win32,60,,,left,0.977,,,,,,,,,0,2,2,0,1,,,,,,,,,,,,,,,,
,,,,,,,stim/VC_11.wav,5d159d0a8078020016aa60b9,2021-01-20_13h13.05.364,English_step1,2020.2.3,Win32,60,,,right,0.602,,,,,,,,,0,3,3,10,1,,,,,,,,,,,,,,,,
,,,,,,,stim/VC_06.wav,5d159d0a8078020016aa60b9,2021-01-20_13h13.05.364,English_step1,2020.2.3,Win32,60,,,right,1.362,,,,,,,,,0,4,4,5,1,,,,,,,,,,,,,,,,
,,,,,,,stim/VC_09.wav,5d159d0a8078020016aa60b9,2021-01-20_13h13.05.364,English_step1,2020.2.3,Win32,60,,,right,0.825,,,,,,,,,0,5,5,8,1,,,,,,,,,,,,,,,,
,,,,,,,stim/VC_02.wav,5d159d0a8078020016aa60b9,2021-01-20_13h13.05.364,English_step1,2020.2.3,Win32,60,,,left,0.521,,,,,,,,,0,6,6,1,1,,,,,,,,,,,,,,,,
,,,,,,,stim/VC_10.wav,5d159d0a8078020016aa60b9,2021-01-20_13h13.05.364,English_step1,2020.2.3,Win32,60,,,right,0.656,,,,,,,,,0,7,7,9,1,,,,,,,,,,,,,,,,
,,,,,,,stim/VC_08.wav,5d159d0a8078020016aa60b9,2021-01-20_13h13.05.364,English_step1,2020.2.3,Win32,60,,,right,0.762,,,,,,,,,0,8,8,7,1,,,,,,,,,,,,,,,,
,,,,,,,stim/VC_05.wav,5d159d0a8078020016aa60b9,2021-01-20_13h13.05.364,English_step1,2020.2.3,Win32,60,,,left,1.361,,,,,,,,,0,9,9,4,1,,,,,,,,,,,,,,,,
,,,,,,,stim/VC_07.wav,5d159d0a8078020016aa60b9,2021-01-20_13h13.05.364,English_step1,2020.2.3,Win32,60,,,right,0.855,,,,,,,,,0,10,10,6,1,,,,,,,,,,,,,,,,
,,,,,,,stim/VC_10.wav,5d159d0a8078020016aa60b9,2021-01-20_13h13.05.364,English_step1,2020.2.3,Win32,60,,,right,0.475,,,,,,,,,1,0,11,9,1,,,,,,,,,,,,,,,,
,,,,,,,stim/VC_05.wav,5d159d0a8078020016aa60b9,2021-01-20_13h13.05.364,English_step1,2020.2.3,Win32,60,,,left,0.543,,,,,,,,,1,1,12,4,1,,,,,,,,,,,,,,,,
,,,,,,,stim/VC_11.wav,5d159d0a8078020016aa60b9,2021-01-20_13h13.05.364,English_step1,2020.2.3,Win32,60,,,right,0.553,,,,,,,,,1,2,13,10,1,,,,,,,,,,,,,,,,
,,,,,,,stim/VC_02.wav,5d159d0a8078020016aa60b9,2021-01-20_13h13.05.364,English_step1,2020.2.3,Win32,60,,,left,0.35,,,,,,,,,1,3,14,1,1,,,,,,,,,,,,,,,,
,,,,,,,stim/VC_07.wav,5d159d0a8078020016aa60b9,2021-01-20_13h13.05.364,English_step1,2020.2.3,Win32,60,,,right,1.107,,,,,,,,,1,4,15,6,1,,,,,,,,,,,,,,,,
,,,,,,,stim/VC_04.wav,5d159d0a8078020016aa60b9,2021-01-20_13h13.05.364,English_step1,2020.2.3,Win32,60,,,left,0.336,,,,,,,,,1,5,16,3,1,,,,,,,,,,,,,,,,
,,,,,,,stim/VC_08.wav,5d159d0a8078020016aa60b9,2021-01-20_13h13.05.364,English_step1,2020.2.3,Win32,60,,,right,0.442,,,,,,,,,1,6,17,7,1,,,,,,,,,,,,,,,,
,,,,,,,stim/VC_01.wav,5d159d0a8078020016aa60b9,2021-01-20_13h13.05.364,English_step1,2020.2.3,Win32,60,,,left,0.314,,,,,,,,,1,7,18,0,1,,,,,,,,,,,,,,,,
,,,,,,,stim/VC_03.wav,5d159d0a8078020016aa60b9,2021-01-20_13h13.05.364,English_step1,2020.2.3,Win32,60,,,right,0.322,,,,,,,,,1,8,19,2,1,,,,,,,,,,,,,,,,
,,,,,,,stim/VC_06.wav,5d159d0a8078020016aa60b9,2021-01-20_13h13.05.364,English_step1,2020.2.3,Win32,60,,,right,1.552,,,,,,,,,1,9,20,5,1,,,,,,,,,,,,,,,,
,,,,,,,stim/VC_09.wav,5d159d0a8078020016aa60b9,2021-01-20_13h13.05.364,English_step1,2020.2.3,Win32,60,,,right,1.002,,,,,,,,,1,10,21,8,1,,,,,,,,,,,,,,,,
,,,,,,,stim2/pa-05.wav,5d159d0a8078020016aa60b9,2021-01-20_13h13.05.364,English_step1,2020.2.3,Win32,60,,,,,,,,,,,,,,,,,,left,2.225,0,0,0,10,1,,,,,,,,,
,,,,,,,stim2/pa+45.wav,5d159d0a8078020016aa60b9,2021-01-20_13h13.05.364,English_step1,2020.2.3,Win32,60,,,,,,,,,,,,,,,,,,left,11.791,0,1,1,8,1,,,,,,,,,
,,,,,,,stim2/pa-30.wav,5d159d0a8078020016aa60b9,2021-01-20_13h13.05.364,English_step1,2020.2.3,Win32,60,,,,,,,,,,,,,,,,,,right,1.044,0,2,2,15,1,,,,,,,,,
,,,,,,,stim2/pa-25.wav,5d159d0a8078020016aa60b9,2021-01-20_13h13.05.364,English_step1,2020.2.3,Win32,60,,,,,,,,,,,,,,,,,,right,0.481,0,3,3,14,1,,,,,,,,,
,,,,,,,stim2/pa+10.wav,5d159d0a8078020016aa60b9,2021-01-20_13h13.05.364,English_step1,2020.2.3,Win32,60,,,,,,,,,,,,,,,,,,right,0.39,0,4,4,1,1,,,,,,,,,
,,,,,,,stim2/pa+35.wav,5d159d0a8078020016aa60b9,2021-01-20_13h13.05.364,English_step1,2020.2.3,Win32,60,,,,,,,,,,,,,,,,,,right,0.348,0,5,5,6,1,,,,,,,,,
,,,,,,,stim2/pa-20.wav,5d159d0a8078020016aa60b9,2021-01-20_13h13.05.364,English_step1,2020.2.3,Win32,60,,,,,,,,,,,,,,,,,,right,0.473,0,6,6,13,1,,,,,,,,,
,,,,,,,stim2/pa+30.wav,5d159d0a8078020016aa60b9,2021-01-20_13h13.05.364,English_step1,2020.2.3,Win32,60,,,,,,,,,,,,,,,,,,right,0.605,0,7,7,5,1,,,,,,,,,
,,,,,,,stim2/pa-10.wav,5d159d0a8078020016aa60b9,2021-01-20_13h13.05.364,English_step1,2020.2.3,Win32,60,,,,,,,,,,,,,,,,,,right,0.541,0,8,8,11,1,,,,,,,,,
,,,,,,,stim2/pa+15.wav,5d159d0a8078020016aa60b9,2021-01-20_13h13.05.364,English_step1,2020.2.3,Win32,60,,,,,,,,,,,,,,,,,,right,0.521,0,9,9,2,1,,,,,,,,,
,,,,,,,stim2/pa+50.wav,5d159d0a8078020016aa60b9,2021-01-20_13h13.05.364,English_step1,2020.2.3,Win32,60,,,,,,,,,,,,,,,,,,right,0.695,0,10,10,9,1,,,,,,,,,
,,,,,,,stim2/pa+25.wav,5d159d0a8078020016aa60b9,2021-01-20_13h13.05.364,English_step1,2020.2.3,Win32,60,,,,,,,,,,,,,,,,,,right,0.571,0,11,11,4,1,,,,,,,,,
,,,,,,,stim2/pa-15.wav,5d159d0a8078020016aa60b9,2021-01-20_13h13.05.364,English_step1,2020.2.3,Win32,60,,,,,,,,,,,,,,,,,,right,0.553,0,12,12,12,1,,,,,,,,,
,,,,,,,stim2/pa-35.wav,5d159d0a8078020016aa60b9,2021-01-20_13h13.05.364,English_step1,2020.2.3,Win32,60,,,,,,,,,,,,,,,,,,right,0.637,0,13,13,16,1,,,,,,,,,
,,,,,,,stim2/pa+20.wav,5d159d0a8078020016aa60b9,2021-01-20_13h13.05.364,English_step1,2020.2.3,Win32,60,,,,,,,,,,,,,,,,,,right,0.626,0,14,14,3,1,,,,,,,,,
,,,,,,,stim2/pa+40.wav,5d159d0a8078020016aa60b9,2021-01-20_13h13.05.364,English_step1,2020.2.3,Win32,60,,,,,,,,,,,,,,,,,,right,1.056,0,15,15,7,1,,,,,,,,,
,,,,,,,stim2/pa+05.wav,5d159d0a8078020016aa60b9,2021-01-20_13h13.05.364,English_step1,2020.2.3,Win32,60,,,,,,,,,,,,,,,,,,right,0.627,0,16,16,0,1,,,,,,,,,
,,,,,,,stim2/pa+45.wav,5d159d0a8078020016aa60b9,2021-01-20_13h13.05.364,English_step1,2020.2.3,Win32,60,,,,,,,,,,,,,,,,,,right,0.641,1,0,17,8,1,,,,,,,,,
,,,,,,,stim2/pa+20.wav,5d159d0a8078020016aa60b9,2021-01-20_13h13.05.364,English_step1,2020.2.3,Win32,60,,,,,,,,,,,,,,,,,,left,2.071,1,1,18,3,1,,,,,,,,,
,,,,,,,stim2/pa-10.wav,5d159d0a8078020016aa60b9,2021-01-20_13h13.05.364,English_step1,2020.2.3,Win32,60,,,,,,,,,,,,,,,,,,left,0.73,1,2,19,11,1,,,,,,,,,
,,,,,,,stim2/pa+25.wav,5d159d0a8078020016aa60b9,2021-01-20_13h13.05.364,English_step1,2020.2.3,Win32,60,,,,,,,,,,,,,,,,,,left,1.051,1,3,20,4,1,,,,,,,,,
,,,,,,,stim2/pa+05.wav,5d159d0a8078020016aa60b9,2021-01-20_13h13.05.364,English_step1,2020.2.3,Win32,60,,,,,,,,,,,,,,,,,,left,0.722,1,4,21,0,1,,,,,,,,,
,,,,,,,stim2/pa-20.wav,5d159d0a8078020016aa60b9,2021-01-20_13h13.05.364,English_step1,2020.2.3,Win32,60,,,,,,,,,,,,,,,,,,right,0.769,1,5,22,13,1,,,,,,,,,
,,,,,,,stim2/pa-15.wav,5d159d0a8078020016aa60b9,2021-01-20_13h13.05.364,English_step1,2020.2.3,Win32,60,,,,,,,,,,,,,,,,,,left,1.162,1,6,23,12,1,,,,,,,,,
,,,,,,,stim2/pa+40.wav,5d159d0a8078020016aa60b9,2021-01-20_13h13.05.364,English_step1,2020.2.3,Win32,60,,,,,,,,,,,,,,,,,,right,0.727,1,7,24,7,1,,,,,,,,,
,,,,,,,stim2/pa-05.wav,5d159d0a8078020016aa60b9,2021-01-20_13h13.05.364,English_step1,2020.2.3,Win32,60,,,,,,,,,,,,,,,,,,left,0.487,1,8,25,10,1,,,,,,,,,
,,,,,,,stim2/pa-35.wav,5d159d0a8078020016aa60b9,2021-01-20_13h13.05.364,English_step1,2020.2.3,Win32,60,,,,,,,,,,,,,,,,,,right,0.415,1,9,26,16,1,,,,,,,,,
,,,,,,,stim2/pa+15.wav,5d159d0a8078020016aa60b9,2021-01-20_13h13.05.364,English_step1,2020.2.3,Win32,60,,,,,,,,,,,,,,,,,,left,0.353,1,10,27,2,1,,,,,,,,,
,,,,,,,stim2/pa-25.wav,5d159d0a8078020016aa60b9,2021-01-20_13h13.05.364,English_step1,2020.2.3,Win32,60,,,,,,,,,,,,,,,,,,right,0.312,1,11,28,14,1,,,,,,,,,
,,,,,,,stim2/pa+30.wav,5d159d0a8078020016aa60b9,2021-01-20_13h13.05.364,English_step1,2020.2.3,Win32,60,,,,,,,,,,,,,,,,,,left,0.219,1,12,29,5,1,,,,,,,,,
,,,,,,,stim2/pa-30.wav,5d159d0a8078020016aa60b9,2021-01-20_13h13.05.364,English_step1,2020.2.3,Win32,60,,,,,,,,,,,,,,,,,,right,0.422,1,13,30,15,1,,,,,,,,,
,,,,,,,stim2/pa+10.wav,5d159d0a8078020016aa60b9,2021-01-20_13h13.05.364,English_step1,2020.2.3,Win32,60,,,,,,,,,,,,,,,,,,left,0.353,1,14,31,1,1,,,,,,,,,
,,,,,,,stim2/pa+50.wav,5d159d0a8078020016aa60b9,2021-01-20_13h13.05.364,English_step1,2020.2.3,Win32,60,,,,,,,,,,,,,,,,,,right,0.389,1,15,32,9,1,,,,,,,,,
,,,,,,,stim2/pa+35.wav,5d159d0a8078020016aa60b9,2021-01-20_13h13.05.364,English_step1,2020.2.3,Win32,60,,,,,,,,,,,,,,,,,,left,0.348,1,16,33,6,1,,,,,,,,,
,,,,,,,stim2/pa+25.wav,5d159d0a8078020016aa60b9,2021-01-20_13h13.05.364,English_step1,2020.2.3,Win32,60,,,,,,,,,,,,,,,,,,right,0.246,2,0,34,4,1,,,,,,,,,
,,,,,,,stim2/pa+50.wav,5d159d0a8078020016aa60b9,2021-01-20_13h13.05.364,English_step1,2020.2.3,Win32,60,,,,,,,,,,,,,,,,,,left,0.401,2,1,35,9,1,,,,,,,,,
,,,,,,,stim2/pa-20.wav,5d159d0a8078020016aa60b9,2021-01-20_13h13.05.364,English_step1,2020.2.3,Win32,60,,,,,,,,,,,,,,,,,,right,0.326,2,2,36,13,1,,,,,,,,,
,,,,,,,stim2/pa+15.wav,5d159d0a8078020016aa60b9,2021-01-20_13h13.05.364,English_step1,2020.2.3,Win32,60,,,,,,,,,,,,,,,,,,left,0.255,2,3,37,2,1,,,,,,,,,
,,,,,,,stim2/pa-15.wav,5d159d0a8078020016aa60b9,2021-01-20_13h13.05.364,English_step1,2020.2.3,Win32,60,,,,,,,,,,,,,,,,,,right,0.201,2,4,38,12,1,,,,,,,,,
,,,,,,,stim2/pa-35.wav,5d159d0a8078020016aa60b9,2021-01-20_13h13.05.364,English_step1,2020.2.3,Win32,60,,,,,,,,,,,,,,,,,,right,0.992,2,5,39,16,1,,,,,,,,,
,,,,,,,stim2/pa+35.wav,5d159d0a8078020016aa60b9,2021-01-20_13h13.05.364,English_step1,2020.2.3,Win32,60,,,,,,,,,,,,,,,,,,left,0.469,2,6,40,6,1,,,,,,,,,
,,,,,,,stim2/pa-30.wav,5d159d0a8078020016aa60b9,2021-01-20_13h13.05.364,English_step1,2020.2.3,Win32,60,,,,,,,,,,,,,,,,,,right,0.53,2,7,41,15,1,,,,,,,,,
,,,,,,,stim2/pa+30.wav,5d159d0a8078020016aa60b9,2021-01-20_13h13.05.364,English_step1,2020.2.3,Win32,60,,,,,,,,,,,,,,,,,,left,0.288,2,8,42,5,1,,,,,,,,,
,,,,,,,stim2/pa+45.wav,5d159d0a8078020016aa60b9,2021-01-20_13h13.05.364,English_step1,2020.2.3,Win32,60,,,,,,,,,,,,,,,,,,right,0.706,2,9,43,8,1,,,,,,,,,
,,,,,,,stim2/pa-25.wav,5d159d0a8078020016aa60b9,2021-01-20_13h13.05.364,English_step1,2020.2.3,Win32,60,,,,,,,,,,,,,,,,,,right,0.776,2,10,44,14,1,,,,,,,,,
,,,,,,,stim2/pa-05.wav,5d159d0a8078020016aa60b9,2021-01-20_13h13.05.364,English_step1,2020.2.3,Win32,60,,,,,,,,,,,,,,,,,,left,0.288,2,11,45,10,1,,,,,,,,,
,,,,,,,stim2/pa+10.wav,5d159d0a8078020016aa60b9,2021-01-20_13h13.05.364,English_step1,2020.2.3,Win32,60,,,,,,,,,,,,,,,,,,left,0.72,2,12,46,1,1,,,,,,,,,
,,,,,,,stim2/pa+20.wav,5d159d0a8078020016aa60b9,2021-01-20_13h13.05.364,English_step1,2020.2.3,Win32,60,,,,,,,,,,,,,,,,,,left,1.033,2,13,47,3,1,,,,,,,,,
,,,,,,,stim2/pa-10.wav,5d159d0a8078020016aa60b9,2021-01-20_13h13.05.364,English_step1,2020.2.3,Win32,60,,,,,,,,,,,,,,,,,,right,0.869,2,14,48,11,1,,,,,,,,,
,,,,,,,stim2/pa+40.wav,5d159d0a8078020016aa60b9,2021-01-20_13h13.05.364,English_step1,2020.2.3,Win32,60,,,,,,,,,,,,,,,,,,right,1.322,2,15,49,7,1,,,,,,,,,
,,,,,,,stim2/pa+05.wav,5d159d0a8078020016aa60b9,2021-01-20_13h13.05.364,English_step1,2020.2.3,Win32,60,,,,,,,,,,,,,,,,,,left,0.433,2,16,50,0,1,,,,,,,,,
,,,,,,,stim2/pa+40.wav,5d159d0a8078020016aa60b9,2021-01-20_13h13.05.364,English_step1,2020.2.3,Win32,60,,,,,,,,,,,,,,,,,,right,1.727,,,,,,q,1.878,0,0,0,7,1,,
,,,,,,,stim2/pa+45.wav,5d159d0a8078020016aa60b9,2021-01-20_13h13.05.364,English_step1,2020.2.3,Win32,60,,,,,,,,,,,,,,,,,,left,0.423,,,,,,,,0,1,1,8,1,,
,,,,,,,stim2/pa+05.wav,5d159d0a8078020016aa60b9,2021-01-20_13h13.05.364,English_step1,2020.2.3,Win32,60,,,,,,,,,,,,,,,,,,right,2.129,,,,,,,,0,2,2,0,1,,
,,,,,,,stim2/pa-10.wav,5d159d0a8078020016aa60b9,2021-01-20_13h13.05.364,English_step1,2020.2.3,Win32,60,,,,,,,,,,,,,,,,,,left,0.469,,,,,,,,0,3,3,11,1,,
,,,,,,,stim2/pa+10.wav,5d159d0a8078020016aa60b9,2021-01-20_13h13.05.364,English_step1,2020.2.3,Win32,60,,,,,,,,,,,,,,,,,,left,0.965,,,,,,,,0,4,4,1,1,,
,,,,,,,stim2/pa-20.wav,5d159d0a8078020016aa60b9,2021-01-20_13h13.05.364,English_step1,2020.2.3,Win32,60,,,,,,,,,,,,,,,,,,right,0.62,,,,,,,,0,5,5,13,1,,
,,,,,,,stim2/pa-30.wav,5d159d0a8078020016aa60b9,2021-01-20_13h13.05.364,English_step1,2020.2.3,Win32,60,,,,,,,,,,,,,,,,,,right,1.52,,,,,,,,0,6,6,15,1,,
,,,,,,,stim2/pa-05.wav,5d159d0a8078020016aa60b9,2021-01-20_13h13.05.364,English_step1,2020.2.3,Win32,60,,,,,,,,,,,,,,,,,,left,1.88,,,,,,,,0,7,7,10,1,,
,,,,,,,stim2/pa+25.wav,5d159d0a8078020016aa60b9,2021-01-20_13h13.05.364,English_step1,2020.2.3,Win32,60,,,,,,,,,,,,,,,,,,right,0.708,,,,,,,,0,8,8,4,1,,
,,,,,,,stim2/pa+35.wav,5d159d0a8078020016aa60b9,2021-01-20_13h13.05.364,English_step1,2020.2.3,Win32,60,,,,,,,,,,,,,,,,,,left,0.413,,,,,,,,0,9,9,6,1,,
,,,,,,,stim2/pa+50.wav,5d159d0a8078020016aa60b9,2021-01-20_13h13.05.364,English_step1,2020.2.3,Win32,60,,,,,,,,,,,,,,,,,,right,0.603,,,,,,,,0,10,10,9,1,,
,,,,,,,stim2/pa+20.wav,5d159d0a8078020016aa60b9,2021-01-20_13h13.05.364,English_step1,2020.2.3,Win32,60,,,,,,,,,,,,,,,,,,left,0.467,,,,,,,,0,11,11,3,1,,
,,,,,,,stim2/pa-15.wav,5d159d0a8078020016aa60b9,2021-01-20_13h13.05.364,English_step1,2020.2.3,Win32,60,,,,,,,,,,,,,,,,,,right,0.294,,,,,,,,0,12,12,12,1,,
,,,,,,,stim2/pa+15.wav,5d159d0a8078020016aa60b9,2021-01-20_13h13.05.364,English_step1,2020.2.3,Win32,60,,,,,,,,,,,,,,,,,,left,0.307,,,,,,,,0,13,13,2,1,,
,,,,,,,stim2/pa+30.wav,5d159d0a8078020016aa60b9,2021-01-20_13h13.05.364,English_step1,2020.2.3,Win32,60,,,,,,,,,,,,,,,,,,right,0.167,,,,,,,,0,14,14,5,1,,
,,,,,,,stim2/pa-35.wav,5d159d0a8078020016aa60b9,2021-01-20_13h13.05.364,English_step1,2020.2.3,Win32,60,,,,,,,,,,,,,,,,,,right,1.294,,,,,,,,0,15,15,16,1,,
,,,,,,,stim2/pa-25.wav,5d159d0a8078020016aa60b9,2021-01-20_13h13.05.364,English_step1,2020.2.3,Win32,60,,,,,,,,,,,,,,,,,,right,0.761,,,,,,,,0,16,16,14,1,,
,,,,,,,stim2/pa+05.wav,5d159d0a8078020016aa60b9,2021-01-20_13h13.05.364,English_step1,2020.2.3,Win32,60,,,,,,,,,,,,,,,,,,left,0.423,,,,,,,,1,0,17,0,1,,
,,,,,,,stim2/pa-30.wav,5d159d0a8078020016aa60b9,2021-01-20_13h13.05.364,English_step1,2020.2.3,Win32,60,,,,,,,,,,,,,,,,,,right,0.618,,,,,,,,1,1,18,15,1,,
,,,,,,,stim2/pa-25.wav,5d159d0a8078020016aa60b9,2021-01-20_13h13.05.364,English_step1,2020.2.3,Win32,60,,,,,,,,,,,,,,,,,,right,0.854,,,,,,,,1,2,19,14,1,,
,,,,,,,stim2/pa-05.wav,5d159d0a8078020016aa60b9,2021-01-20_13h13.05.364,English_step1,2020.2.3,Win32,60,,,,,,,,,,,,,,,,,,left,0.399,,,,,,,,1,3,20,10,1,,
,,,,,,,stim2/pa-35.wav,5d159d0a8078020016aa60b9,2021-01-20_13h13.05.364,English_step1,2020.2.3,Win32,60,,,,,,,,,,,,,,,,,,right,0.582,,,,,,,,1,4,21,16,1,,
,,,,,,,stim2/pa+40.wav,5d159d0a8078020016aa60b9,2021-01-20_13h13.05.364,English_step1,2020.2.3,Win32,60,,,,,,,,,,,,,,,,,,left,0.439,,,,,,,,1,5,22,7,1,,
,,,,,,,stim2/pa+15.wav,5d159d0a8078020016aa60b9,2021-01-20_13h13.05.364,English_step1,2020.2.3,Win32,60,,,,,,,,,,,,,,,,,,right,0.63,,,,,,,,1,6,23,2,1,,
,,,,,,,stim2/pa+25.wav,5d159d0a8078020016aa60b9,2021-01-20_13h13.05.364,English_step1,2020.2.3,Win32,60,,,,,,,,,,,,,,,,,,left,0.348,,,,,,,,1,7,24,4,1,,
,,,,,,,stim2/pa-15.wav,5d159d0a8078020016aa60b9,2021-01-20_13h13.05.364,English_step1,2020.2.3,Win32,60,,,,,,,,,,,,,,,,,,right,0.731,,,,,,,,1,8,25,12,1,,
,,,,,,,stim2/pa+20.wav,5d159d0a8078020016aa60b9,2021-01-20_13h13.05.364,English_step1,2020.2.3,Win32,60,,,,,,,,,,,,,,,,,,left,0.345,,,,,,,,1,9,26,3,1,,
,,,,,,,stim2/pa+35.wav,5d159d0a8078020016aa60b9,2021-01-20_13h13.05.364,English_step1,2020.2.3,Win32,60,,,,,,,,,,,,,,,,,,right,0.519,,,,,,,,1,10,27,6,1,,
,,,,,,,stim2/pa+50.wav,5d159d0a8078020016aa60b9,2021-01-20_13h13.05.364,English_step1,2020.2.3,Win32,60,,,,,,,,,,,,,,,,,,left,0.389,,,,,,,,1,11,28,9,1,,
,,,,,,,stim2/pa+30.wav,5d159d0a8078020016aa60b9,2021-01-20_13h13.05.364,English_step1,2020.2.3,Win32,60,,,,,,,,,,,,,,,,,,right,0.8,,,,,,,,1,12,29,5,1,,
,,,,,,,stim2/pa-20.wav,5d159d0a8078020016aa60b9,2021-01-20_13h13.05.364,English_step1,2020.2.3,Win32,60,,,,,,,,,,,,,,,,,,right,0.731,,,,,,,,1,13,30,13,1,,
,,,,,,,stim2/pa-10.wav,5d159d0a8078020016aa60b9,2021-01-20_13h13.05.364,English_step1,2020.2.3,Win32,60,,,,,,,,,,,,,,,,,,right,0.576,,,,,,,,1,14,31,11,1,,
,,,,,,,stim2/pa+10.wav,5d159d0a8078020016aa60b9,2021-01-20_13h13.05.364,English_step1,2020.2.3,Win32,60,,,,,,,,,,,,,,,,,,right,1.315,,,,,,,,1,15,32,1,1,,
,,,,,,,stim2/pa+45.wav,5d159d0a8078020016aa60b9,2021-01-20_13h13.05.364,English_step1,2020.2.3,Win32,60,,,,,,,,,,,,,,,,,,left,0.587,,,,,,,,1,16,33,8,1,,
,,,,,,,,5d159d0a8078020016aa60b9,2021-01-20_13h13.05.364,English_step1,2020.2.3,Win32,60,,,,,,,,,,,,,,,,,,,,,,,,,,,,,,,,space,14.354
