resp.keys,resp.rt,trials.thisRepN,trials.thisTrialN,trials.thisN,trials.thisIndex,trials.ran,stimuli,participant,date,expName,psychopyVersion,OS,frameRate,gotResponse.keys,gotResponse.rt,resp_2.keys,resp_2.rt,trials_2.thisRepN,trials_2.thisTrialN,trials_2.thisN,trials_2.thisIndex,trials_2.ran,key_resp_3.keys,key_resp_3.corr,key_resp_3.rt,trials_4.thisRepN,trials_4.thisTrialN,trials_4.thisN,trials_4.thisIndex,trials_4.ran,resp_3.keys,resp_3.rt,trials_3.thisRepN,trials_3.thisTrialN,trials_3.thisN,trials_3.thisIndex,trials_3.ran,key_resp_2.keys,key_resp_2.rt,trials_5.thisRepN,trials_5.thisTrialN,trials_5.thisN,trials_5.thisIndex,trials_5.ran,key_resp.keys,key_resp.rt
left,1.96621,0,0,0,0,1,stim/VC_01.wav,5dab79a5525a7600139cd31e,2020-12-16_22h03.07.009,English_step1,2020.2.3,Win32,60,,,,,,,,,,,,,,,,,,,,,,,,,,,,,,,,,
right,1.283755,0,1,1,1,1,stim/VC_11.wav,5dab79a5525a7600139cd31e,2020-12-16_22h03.07.009,English_step1,2020.2.3,Win32,60,,,,,,,,,,,,,,,,,,,,,,,,,,,,,,,,,
,,,,,,,stim/VC_09.wav,5dab79a5525a7600139cd31e,2020-12-16_22h03.07.009,English_step1,2020.2.3,Win32,60,space,2.59798,right,1.55627,0,0,0,8,1,,,,,,,,,,,,,,,,,,,,,,,,
,,,,,,,stim/VC_03.wav,5dab79a5525a7600139cd31e,2020-12-16_22h03.07.009,English_step1,2020.2.3,Win32,60,,,right,7.23815,0,1,1,2,1,,,,,,,,,,,,,,,,,,,,,,,,
,,,,,,,stim/VC_01.wav,5dab79a5525a7600139cd31e,2020-12-16_22h03.07.009,English_step1,2020.2.3,Win32,60,,,left,0.882575,0,2,2,0,1,,,,,,,,,,,,,,,,,,,,,,,,
,,,,,,,stim/VC_06.wav,5dab79a5525a7600139cd31e,2020-12-16_22h03.07.009,English_step1,2020.2.3,Win32,60,,,right,0.99493,0,3,3,5,1,,,,,,,,,,,,,,,,,,,,,,,,
,,,,,,,stim/VC_02.wav,5dab79a5525a7600139cd31e,2020-12-16_22h03.07.009,English_step1,2020.2.3,Win32,60,,,left,0.90057,0,4,4,1,1,,,,,,,,,,,,,,,,,,,,,,,,
,,,,,,,stim/VC_10.wav,5dab79a5525a7600139cd31e,2020-12-16_22h03.07.009,English_step1,2020.2.3,Win32,60,,,right,0.76824,0,5,5,9,1,,,,,,,,,,,,,,,,,,,,,,,,
,,,,,,,stim/VC_04.wav,5dab79a5525a7600139cd31e,2020-12-16_22h03.07.009,English_step1,2020.2.3,Win32,60,,,left,1.954945,0,6,6,3,1,,,,,,,,,,,,,,,,,,,,,,,,
,,,,,,,stim/VC_07.wav,5dab79a5525a7600139cd31e,2020-12-16_22h03.07.009,English_step1,2020.2.3,Win32,60,,,right,0.84231,0,7,7,6,1,,,,,,,,,,,,,,,,,,,,,,,,
,,,,,,,stim/VC_05.wav,5dab79a5525a7600139cd31e,2020-12-16_22h03.07.009,English_step1,2020.2.3,Win32,60,,,right,0.67734,0,8,8,4,1,,,,,,,,,,,,,,,,,,,,,,,,
,,,,,,,stim/VC_08.wav,5dab79a5525a7600139cd31e,2020-12-16_22h03.07.009,English_step1,2020.2.3,Win32,60,,,right,0.537775,0,9,9,7,1,,,,,,,,,,,,,,,,,,,,,,,,
,,,,,,,stim/VC_11.wav,5dab79a5525a7600139cd31e,2020-12-16_22h03.07.009,English_step1,2020.2.3,Win32,60,,,right,0.82227,0,10,10,10,1,,,,,,,,,,,,,,,,,,,,,,,,
,,,,,,,stim/VC_07.wav,5dab79a5525a7600139cd31e,2020-12-16_22h03.07.009,English_step1,2020.2.3,Win32,60,,,right,0.76518,1,0,11,6,1,,,,,,,,,,,,,,,,,,,,,,,,
,,,,,,,stim/VC_02.wav,5dab79a5525a7600139cd31e,2020-12-16_22h03.07.009,English_step1,2020.2.3,Win32,60,,,left,0.66615,1,1,12,1,1,,,,,,,,,,,,,,,,,,,,,,,,
,,,,,,,stim/VC_04.wav,5dab79a5525a7600139cd31e,2020-12-16_22h03.07.009,English_step1,2020.2.3,Win32,60,,,left,0.706315,1,2,13,3,1,,,,,,,,,,,,,,,,,,,,,,,,
,,,,,,,stim/VC_11.wav,5dab79a5525a7600139cd31e,2020-12-16_22h03.07.009,English_step1,2020.2.3,Win32,60,,,right,0.562565,1,3,14,10,1,,,,,,,,,,,,,,,,,,,,,,,,
,,,,,,,stim/VC_01.wav,5dab79a5525a7600139cd31e,2020-12-16_22h03.07.009,English_step1,2020.2.3,Win32,60,,,left,0.70073,1,4,15,0,1,,,,,,,,,,,,,,,,,,,,,,,,
,,,,,,,stim/VC_03.wav,5dab79a5525a7600139cd31e,2020-12-16_22h03.07.009,English_step1,2020.2.3,Win32,60,,,left,0.68413,1,5,16,2,1,,,,,,,,,,,,,,,,,,,,,,,,
,,,,,,,stim/VC_10.wav,5dab79a5525a7600139cd31e,2020-12-16_22h03.07.009,English_step1,2020.2.3,Win32,60,,,right,0.618415,1,6,17,9,1,,,,,,,,,,,,,,,,,,,,,,,,
,,,,,,,stim/VC_08.wav,5dab79a5525a7600139cd31e,2020-12-16_22h03.07.009,English_step1,2020.2.3,Win32,60,,,right,0.68966,1,7,18,7,1,,,,,,,,,,,,,,,,,,,,,,,,
,,,,,,,stim/VC_06.wav,5dab79a5525a7600139cd31e,2020-12-16_22h03.07.009,English_step1,2020.2.3,Win32,60,,,right,0.577235,1,8,19,5,1,,,,,,,,,,,,,,,,,,,,,,,,
,,,,,,,stim/VC_05.wav,5dab79a5525a7600139cd31e,2020-12-16_22h03.07.009,English_step1,2020.2.3,Win32,60,,,right,0.57834,1,9,20,4,1,,,,,,,,,,,,,,,,,,,,,,,,
,,,,,,,stim/VC_09.wav,5dab79a5525a7600139cd31e,2020-12-16_22h03.07.009,English_step1,2020.2.3,Win32,60,,,right,0.5625,1,10,21,8,1,,,,,,,,,,,,,,,,,,,,,,,,
,,,,,,,stim/VC_08.wav,5dab79a5525a7600139cd31e,2020-12-16_22h03.07.009,English_step1,2020.2.3,Win32,60,,,right,0.82782,2,0,22,7,1,,,,,,,,,,,,,,,,,,,,,,,,
,,,,,,,stim/VC_03.wav,5dab79a5525a7600139cd31e,2020-12-16_22h03.07.009,English_step1,2020.2.3,Win32,60,,,left,0.61242,2,1,23,2,1,,,,,,,,,,,,,,,,,,,,,,,,
,,,,,,,stim/VC_01.wav,5dab79a5525a7600139cd31e,2020-12-16_22h03.07.009,English_step1,2020.2.3,Win32,60,,,left,0.56876,2,2,24,0,1,,,,,,,,,,,,,,,,,,,,,,,,
,,,,,,,stim/VC_04.wav,5dab79a5525a7600139cd31e,2020-12-16_22h03.07.009,English_step1,2020.2.3,Win32,60,,,left,2.67546,2,3,25,3,1,,,,,,,,,,,,,,,,,,,,,,,,
,,,,,,,stim/VC_09.wav,5dab79a5525a7600139cd31e,2020-12-16_22h03.07.009,English_step1,2020.2.3,Win32,60,,,right,0.62582,2,4,26,8,1,,,,,,,,,,,,,,,,,,,,,,,,
,,,,,,,stim/VC_10.wav,5dab79a5525a7600139cd31e,2020-12-16_22h03.07.009,English_step1,2020.2.3,Win32,60,,,right,0.54947,2,5,27,9,1,,,,,,,,,,,,,,,,,,,,,,,,
,,,,,,,stim/VC_11.wav,5dab79a5525a7600139cd31e,2020-12-16_22h03.07.009,English_step1,2020.2.3,Win32,60,,,right,0.417315,2,6,28,10,1,,,,,,,,,,,,,,,,,,,,,,,,
,,,,,,,stim/VC_07.wav,5dab79a5525a7600139cd31e,2020-12-16_22h03.07.009,English_step1,2020.2.3,Win32,60,,,right,0.34682,2,7,29,6,1,,,,,,,,,,,,,,,,,,,,,,,,
,,,,,,,stim/VC_05.wav,5dab79a5525a7600139cd31e,2020-12-16_22h03.07.009,English_step1,2020.2.3,Win32,60,,,right,0.29932,2,8,30,4,1,,,,,,,,,,,,,,,,,,,,,,,,
,,,,,,,stim/VC_02.wav,5dab79a5525a7600139cd31e,2020-12-16_22h03.07.009,English_step1,2020.2.3,Win32,60,,,right,0.290615,2,9,31,1,1,,,,,,,,,,,,,,,,,,,,,,,,
,,,,,,,stim/VC_06.wav,5dab79a5525a7600139cd31e,2020-12-16_22h03.07.009,English_step1,2020.2.3,Win32,60,,,right,1.15124,2,10,32,5,1,,,,,,,,,,,,,,,,,,,,,,,,
,,,,,,,stim/VC_01.wav,5dab79a5525a7600139cd31e,2020-12-16_22h03.07.009,English_step1,2020.2.3,Win32,60,,,left,0.650965,,,,,,4,0,5.128055,0,0,0,0,1,,,,,,,,,,,,,,,,
,,,,,,,stim/VC_08.wav,5dab79a5525a7600139cd31e,2020-12-16_22h03.07.009,English_step1,2020.2.3,Win32,60,,,right,0.69015,,,,,,,,,0,1,1,7,1,,,,,,,,,,,,,,,,
,,,,,,,stim/VC_11.wav,5dab79a5525a7600139cd31e,2020-12-16_22h03.07.009,English_step1,2020.2.3,Win32,60,,,right,0.84459,,,,,,,,,0,2,2,10,1,,,,,,,,,,,,,,,,
,,,,,,,stim/VC_02.wav,5dab79a5525a7600139cd31e,2020-12-16_22h03.07.009,English_step1,2020.2.3,Win32,60,,,left,0.633975,,,,,,,,,0,3,3,1,1,,,,,,,,,,,,,,,,
,,,,,,,stim/VC_05.wav,5dab79a5525a7600139cd31e,2020-12-16_22h03.07.009,English_step1,2020.2.3,Win32,60,,,right,0.81237,,,,,,,,,0,4,4,4,1,,,,,,,,,,,,,,,,
,,,,,,,stim/VC_10.wav,5dab79a5525a7600139cd31e,2020-12-16_22h03.07.009,English_step1,2020.2.3,Win32,60,,,right,0.709215,,,,,,,,,0,5,5,9,1,,,,,,,,,,,,,,,,
,,,,,,,stim/VC_03.wav,5dab79a5525a7600139cd31e,2020-12-16_22h03.07.009,English_step1,2020.2.3,Win32,60,,,left,0.703885,,,,,,,,,0,6,6,2,1,,,,,,,,,,,,,,,,
,,,,,,,stim/VC_07.wav,5dab79a5525a7600139cd31e,2020-12-16_22h03.07.009,English_step1,2020.2.3,Win32,60,,,right,0.633045,,,,,,,,,0,7,7,6,1,,,,,,,,,,,,,,,,
,,,,,,,stim/VC_06.wav,5dab79a5525a7600139cd31e,2020-12-16_22h03.07.009,English_step1,2020.2.3,Win32,60,,,right,0.714955,,,,,,,,,0,8,8,5,1,,,,,,,,,,,,,,,,
,,,,,,,stim/VC_09.wav,5dab79a5525a7600139cd31e,2020-12-16_22h03.07.009,English_step1,2020.2.3,Win32,60,,,right,0.80033,,,,,,,,,0,9,9,8,1,,,,,,,,,,,,,,,,
,,,,,,,stim/VC_04.wav,5dab79a5525a7600139cd31e,2020-12-16_22h03.07.009,English_step1,2020.2.3,Win32,60,,,left,1.002635,,,,,,,,,0,10,10,3,1,,,,,,,,,,,,,,,,
,,,,,,,stim/VC_10.wav,5dab79a5525a7600139cd31e,2020-12-16_22h03.07.009,English_step1,2020.2.3,Win32,60,,,right,0.644615,,,,,,,,,1,0,11,9,1,,,,,,,,,,,,,,,,
,,,,,,,stim/VC_01.wav,5dab79a5525a7600139cd31e,2020-12-16_22h03.07.009,English_step1,2020.2.3,Win32,60,,,left,0.769275,,,,,,,,,1,1,12,0,1,,,,,,,,,,,,,,,,
,,,,,,,stim/VC_09.wav,5dab79a5525a7600139cd31e,2020-12-16_22h03.07.009,English_step1,2020.2.3,Win32,60,,,right,0.753895,,,,,,,,,1,2,13,8,1,,,,,,,,,,,,,,,,
,,,,,,,stim/VC_04.wav,5dab79a5525a7600139cd31e,2020-12-16_22h03.07.009,English_step1,2020.2.3,Win32,60,,,right,1.18383,,,,,,,,,1,3,14,3,1,,,,,,,,,,,,,,,,
,,,,,,,stim/VC_11.wav,5dab79a5525a7600139cd31e,2020-12-16_22h03.07.009,English_step1,2020.2.3,Win32,60,,,right,0.74739,,,,,,,,,1,4,15,10,1,,,,,,,,,,,,,,,,
,,,,,,,stim/VC_08.wav,5dab79a5525a7600139cd31e,2020-12-16_22h03.07.009,English_step1,2020.2.3,Win32,60,,,right,0.856105,,,,,,,,,1,5,16,7,1,,,,,,,,,,,,,,,,
,,,,,,,stim/VC_05.wav,5dab79a5525a7600139cd31e,2020-12-16_22h03.07.009,English_step1,2020.2.3,Win32,60,,,right,0.892275,,,,,,,,,1,6,17,4,1,,,,,,,,,,,,,,,,
,,,,,,,stim/VC_07.wav,5dab79a5525a7600139cd31e,2020-12-16_22h03.07.009,English_step1,2020.2.3,Win32,60,,,right,0.89078,,,,,,,,,1,7,18,6,1,,,,,,,,,,,,,,,,
,,,,,,,stim/VC_06.wav,5dab79a5525a7600139cd31e,2020-12-16_22h03.07.009,English_step1,2020.2.3,Win32,60,,,right,1.19859,,,,,,,,,1,8,19,5,1,,,,,,,,,,,,,,,,
,,,,,,,stim/VC_02.wav,5dab79a5525a7600139cd31e,2020-12-16_22h03.07.009,English_step1,2020.2.3,Win32,60,,,left,0.69814,,,,,,,,,1,9,20,1,1,,,,,,,,,,,,,,,,
,,,,,,,stim/VC_03.wav,5dab79a5525a7600139cd31e,2020-12-16_22h03.07.009,English_step1,2020.2.3,Win32,60,,,left,0.733815,,,,,,,,,1,10,21,2,1,,,,,,,,,,,,,,,,
,,,,,,,stim2/pa+35.wav,5dab79a5525a7600139cd31e,2020-12-16_22h03.07.009,English_step1,2020.2.3,Win32,60,,,,,,,,,,,,,,,,,,right,1.61243,0,0,0,6,1,,,,,,,,,
,,,,,,,stim2/pa+05.wav,5dab79a5525a7600139cd31e,2020-12-16_22h03.07.009,English_step1,2020.2.3,Win32,60,,,,,,,,,,,,,,,,,,left,1.12162,0,1,1,0,1,,,,,,,,,
,,,,,,,stim2/pa+20.wav,5dab79a5525a7600139cd31e,2020-12-16_22h03.07.009,English_step1,2020.2.3,Win32,60,,,,,,,,,,,,,,,,,,left,1.050415,0,2,2,3,1,,,,,,,,,
,,,,,,,stim2/pa+15.wav,5dab79a5525a7600139cd31e,2020-12-16_22h03.07.009,English_step1,2020.2.3,Win32,60,,,,,,,,,,,,,,,,,,left,1.11325,0,3,3,2,1,,,,,,,,,
,,,,,,,stim2/pa-30.wav,5dab79a5525a7600139cd31e,2020-12-16_22h03.07.009,English_step1,2020.2.3,Win32,60,,,,,,,,,,,,,,,,,,right,0.843095,0,4,4,15,1,,,,,,,,,
,,,,,,,stim2/pa-25.wav,5dab79a5525a7600139cd31e,2020-12-16_22h03.07.009,English_step1,2020.2.3,Win32,60,,,,,,,,,,,,,,,,,,right,0.821355,0,5,5,14,1,,,,,,,,,
,,,,,,,stim2/pa-35.wav,5dab79a5525a7600139cd31e,2020-12-16_22h03.07.009,English_step1,2020.2.3,Win32,60,,,,,,,,,,,,,,,,,,right,0.8048,0,6,6,16,1,,,,,,,,,
,,,,,,,stim2/pa+10.wav,5dab79a5525a7600139cd31e,2020-12-16_22h03.07.009,English_step1,2020.2.3,Win32,60,,,,,,,,,,,,,,,,,,left,1.402255,0,7,7,1,1,,,,,,,,,
,,,,,,,stim2/pa+50.wav,5dab79a5525a7600139cd31e,2020-12-16_22h03.07.009,English_step1,2020.2.3,Win32,60,,,,,,,,,,,,,,,,,,left,0.71604,0,8,8,9,1,,,,,,,,,
,,,,,,,stim2/pa-15.wav,5dab79a5525a7600139cd31e,2020-12-16_22h03.07.009,English_step1,2020.2.3,Win32,60,,,,,,,,,,,,,,,,,,right,0.818055,0,9,9,12,1,,,,,,,,,
,,,,,,,stim2/pa-20.wav,5dab79a5525a7600139cd31e,2020-12-16_22h03.07.009,English_step1,2020.2.3,Win32,60,,,,,,,,,,,,,,,,,,right,0.75222,0,10,10,13,1,,,,,,,,,
,,,,,,,stim2/pa-10.wav,5dab79a5525a7600139cd31e,2020-12-16_22h03.07.009,English_step1,2020.2.3,Win32,60,,,,,,,,,,,,,,,,,,right,0.861,0,11,11,11,1,,,,,,,,,
,,,,,,,stim2/pa+30.wav,5dab79a5525a7600139cd31e,2020-12-16_22h03.07.009,English_step1,2020.2.3,Win32,60,,,,,,,,,,,,,,,,,,right,0.794215,0,12,12,5,1,,,,,,,,,
,,,,,,,stim2/pa+40.wav,5dab79a5525a7600139cd31e,2020-12-16_22h03.07.009,English_step1,2020.2.3,Win32,60,,,,,,,,,,,,,,,,,,right,0.808395,0,13,13,7,1,,,,,,,,,
,,,,,,,stim2/pa-05.wav,5dab79a5525a7600139cd31e,2020-12-16_22h03.07.009,English_step1,2020.2.3,Win32,60,,,,,,,,,,,,,,,,,,right,0.91697,0,14,14,10,1,,,,,,,,,
,,,,,,,stim2/pa+45.wav,5dab79a5525a7600139cd31e,2020-12-16_22h03.07.009,English_step1,2020.2.3,Win32,60,,,,,,,,,,,,,,,,,,right,1.196095,0,15,15,8,1,,,,,,,,,
,,,,,,,stim2/pa+25.wav,5dab79a5525a7600139cd31e,2020-12-16_22h03.07.009,English_step1,2020.2.3,Win32,60,,,,,,,,,,,,,,,,,,left,0.57333,0,16,16,4,1,,,,,,,,,
,,,,,,,stim2/pa+35.wav,5dab79a5525a7600139cd31e,2020-12-16_22h03.07.009,English_step1,2020.2.3,Win32,60,,,,,,,,,,,,,,,,,,left,0.548515,1,0,17,6,1,,,,,,,,,
,,,,,,,stim2/pa+25.wav,5dab79a5525a7600139cd31e,2020-12-16_22h03.07.009,English_step1,2020.2.3,Win32,60,,,,,,,,,,,,,,,,,,right,0.61988,1,1,18,4,1,,,,,,,,,
,,,,,,,stim2/pa+30.wav,5dab79a5525a7600139cd31e,2020-12-16_22h03.07.009,English_step1,2020.2.3,Win32,60,,,,,,,,,,,,,,,,,,right,0.800065,1,2,19,5,1,,,,,,,,,
,,,,,,,stim2/pa+05.wav,5dab79a5525a7600139cd31e,2020-12-16_22h03.07.009,English_step1,2020.2.3,Win32,60,,,,,,,,,,,,,,,,,,right,1.235225,1,3,20,0,1,,,,,,,,,
,,,,,,,stim2/pa-10.wav,5dab79a5525a7600139cd31e,2020-12-16_22h03.07.009,English_step1,2020.2.3,Win32,60,,,,,,,,,,,,,,,,,,right,0.736955,1,4,21,11,1,,,,,,,,,
,,,,,,,stim2/pa+20.wav,5dab79a5525a7600139cd31e,2020-12-16_22h03.07.009,English_step1,2020.2.3,Win32,60,,,,,,,,,,,,,,,,,,left,0.717375,1,5,22,3,1,,,,,,,,,
,,,,,,,stim2/pa-35.wav,5dab79a5525a7600139cd31e,2020-12-16_22h03.07.009,English_step1,2020.2.3,Win32,60,,,,,,,,,,,,,,,,,,right,0.682485,1,6,23,16,1,,,,,,,,,
,,,,,,,stim2/pa-15.wav,5dab79a5525a7600139cd31e,2020-12-16_22h03.07.009,English_step1,2020.2.3,Win32,60,,,,,,,,,,,,,,,,,,right,0.74939,1,7,24,12,1,,,,,,,,,
,,,,,,,stim2/pa+45.wav,5dab79a5525a7600139cd31e,2020-12-16_22h03.07.009,English_step1,2020.2.3,Win32,60,,,,,,,,,,,,,,,,,,right,0.94288,1,8,25,8,1,,,,,,,,,
,,,,,,,stim2/pa+10.wav,5dab79a5525a7600139cd31e,2020-12-16_22h03.07.009,English_step1,2020.2.3,Win32,60,,,,,,,,,,,,,,,,,,left,0.58701,1,9,26,1,1,,,,,,,,,
,,,,,,,stim2/pa-20.wav,5dab79a5525a7600139cd31e,2020-12-16_22h03.07.009,English_step1,2020.2.3,Win32,60,,,,,,,,,,,,,,,,,,right,0.701345,1,10,27,13,1,,,,,,,,,
,,,,,,,stim2/pa-25.wav,5dab79a5525a7600139cd31e,2020-12-16_22h03.07.009,English_step1,2020.2.3,Win32,60,,,,,,,,,,,,,,,,,,right,0.87218,1,11,28,14,1,,,,,,,,,
,,,,,,,stim2/pa-30.wav,5dab79a5525a7600139cd31e,2020-12-16_22h03.07.009,English_step1,2020.2.3,Win32,60,,,,,,,,,,,,,,,,,,right,0.786615,1,12,29,15,1,,,,,,,,,
,,,,,,,stim2/pa+50.wav,5dab79a5525a7600139cd31e,2020-12-16_22h03.07.009,English_step1,2020.2.3,Win32,60,,,,,,,,,,,,,,,,,,right,0.566645,1,13,30,9,1,,,,,,,,,
,,,,,,,stim2/pa+40.wav,5dab79a5525a7600139cd31e,2020-12-16_22h03.07.009,English_step1,2020.2.3,Win32,60,,,,,,,,,,,,,,,,,,right,0.642435,1,14,31,7,1,,,,,,,,,
,,,,,,,stim2/pa-05.wav,5dab79a5525a7600139cd31e,2020-12-16_22h03.07.009,English_step1,2020.2.3,Win32,60,,,,,,,,,,,,,,,,,,right,0.700135,1,15,32,10,1,,,,,,,,,
,,,,,,,stim2/pa+15.wav,5dab79a5525a7600139cd31e,2020-12-16_22h03.07.009,English_step1,2020.2.3,Win32,60,,,,,,,,,,,,,,,,,,right,0.60256,1,16,33,2,1,,,,,,,,,
,,,,,,,stim2/pa+10.wav,5dab79a5525a7600139cd31e,2020-12-16_22h03.07.009,English_step1,2020.2.3,Win32,60,,,,,,,,,,,,,,,,,,right,0.510645,2,0,34,1,1,,,,,,,,,
,,,,,,,stim2/pa+25.wav,5dab79a5525a7600139cd31e,2020-12-16_22h03.07.009,English_step1,2020.2.3,Win32,60,,,,,,,,,,,,,,,,,,right,0.599905,2,1,35,4,1,,,,,,,,,
,,,,,,,stim2/pa-25.wav,5dab79a5525a7600139cd31e,2020-12-16_22h03.07.009,English_step1,2020.2.3,Win32,60,,,,,,,,,,,,,,,,,,right,0.764545,2,2,36,14,1,,,,,,,,,
,,,,,,,stim2/pa+15.wav,5dab79a5525a7600139cd31e,2020-12-16_22h03.07.009,English_step1,2020.2.3,Win32,60,,,,,,,,,,,,,,,,,,right,1.19061,2,3,37,2,1,,,,,,,,,
,,,,,,,stim2/pa+05.wav,5dab79a5525a7600139cd31e,2020-12-16_22h03.07.009,English_step1,2020.2.3,Win32,60,,,,,,,,,,,,,,,,,,right,1.21664,2,4,38,0,1,,,,,,,,,
,,,,,,,stim2/pa+45.wav,5dab79a5525a7600139cd31e,2020-12-16_22h03.07.009,English_step1,2020.2.3,Win32,60,,,,,,,,,,,,,,,,,,right,0.94722,2,5,39,8,1,,,,,,,,,
,,,,,,,stim2/pa-30.wav,5dab79a5525a7600139cd31e,2020-12-16_22h03.07.009,English_step1,2020.2.3,Win32,60,,,,,,,,,,,,,,,,,,right,1.018305,2,6,40,15,1,,,,,,,,,
,,,,,,,stim2/pa+40.wav,5dab79a5525a7600139cd31e,2020-12-16_22h03.07.009,English_step1,2020.2.3,Win32,60,,,,,,,,,,,,,,,,,,right,1.12372,2,7,41,7,1,,,,,,,,,
,,,,,,,stim2/pa-15.wav,5dab79a5525a7600139cd31e,2020-12-16_22h03.07.009,English_step1,2020.2.3,Win32,60,,,,,,,,,,,,,,,,,,right,0.834345,2,8,42,12,1,,,,,,,,,
,,,,,,,stim2/pa+50.wav,5dab79a5525a7600139cd31e,2020-12-16_22h03.07.009,English_step1,2020.2.3,Win32,60,,,,,,,,,,,,,,,,,,right,0.990215,2,9,43,9,1,,,,,,,,,
,,,,,,,stim2/pa-05.wav,5dab79a5525a7600139cd31e,2020-12-16_22h03.07.009,English_step1,2020.2.3,Win32,60,,,,,,,,,,,,,,,,,,right,0.717455,2,10,44,10,1,,,,,,,,,
,,,,,,,stim2/pa+35.wav,5dab79a5525a7600139cd31e,2020-12-16_22h03.07.009,English_step1,2020.2.3,Win32,60,,,,,,,,,,,,,,,,,,left,0.647165,2,11,45,6,1,,,,,,,,,
,,,,,,,stim2/pa+30.wav,5dab79a5525a7600139cd31e,2020-12-16_22h03.07.009,English_step1,2020.2.3,Win32,60,,,,,,,,,,,,,,,,,,right,0.62648,2,12,46,5,1,,,,,,,,,
,,,,,,,stim2/pa+20.wav,5dab79a5525a7600139cd31e,2020-12-16_22h03.07.009,English_step1,2020.2.3,Win32,60,,,,,,,,,,,,,,,,,,right,0.651665,2,13,47,3,1,,,,,,,,,
,,,,,,,stim2/pa-20.wav,5dab79a5525a7600139cd31e,2020-12-16_22h03.07.009,English_step1,2020.2.3,Win32,60,,,,,,,,,,,,,,,,,,right,0.7403,2,14,48,13,1,,,,,,,,,
,,,,,,,stim2/pa-35.wav,5dab79a5525a7600139cd31e,2020-12-16_22h03.07.009,English_step1,2020.2.3,Win32,60,,,,,,,,,,,,,,,,,,right,0.89889,2,15,49,16,1,,,,,,,,,
,,,,,,,stim2/pa-10.wav,5dab79a5525a7600139cd31e,2020-12-16_22h03.07.009,English_step1,2020.2.3,Win32,60,,,,,,,,,,,,,,,,,,right,1.93464,2,16,50,11,1,,,,,,,,,
,,,,,,,stim2/pa+35.wav,5dab79a5525a7600139cd31e,2020-12-16_22h03.07.009,English_step1,2020.2.3,Win32,60,,,,,,,,,,,,,,,,,,left,1.24444,,,,,,q,2.53896,0,0,0,6,1,,
,,,,,,,stim2/pa+15.wav,5dab79a5525a7600139cd31e,2020-12-16_22h03.07.009,English_step1,2020.2.3,Win32,60,,,,,,,,,,,,,,,,,,left,0.76913,,,,,,,,0,1,1,2,1,,
,,,,,,,stim2/pa+50.wav,5dab79a5525a7600139cd31e,2020-12-16_22h03.07.009,English_step1,2020.2.3,Win32,60,,,,,,,,,,,,,,,,,,right,0.576055,,,,,,,,0,2,2,9,1,,
,,,,,,,stim2/pa+40.wav,5dab79a5525a7600139cd31e,2020-12-16_22h03.07.009,English_step1,2020.2.3,Win32,60,,,,,,,,,,,,,,,,,,right,0.60249,,,,,,,,0,3,3,7,1,,
,,,,,,,stim2/pa+05.wav,5dab79a5525a7600139cd31e,2020-12-16_22h03.07.009,English_step1,2020.2.3,Win32,60,,,,,,,,,,,,,,,,,,right,0.660745,,,,,,,,0,4,4,0,1,,
,,,,,,,stim2/pa+30.wav,5dab79a5525a7600139cd31e,2020-12-16_22h03.07.009,English_step1,2020.2.3,Win32,60,,,,,,,,,,,,,,,,,,right,0.460375,,,,,,,,0,5,5,5,1,,
,,,,,,,stim2/pa-20.wav,5dab79a5525a7600139cd31e,2020-12-16_22h03.07.009,English_step1,2020.2.3,Win32,60,,,,,,,,,,,,,,,,,,right,0.68271,,,,,,,,0,6,6,13,1,,
,,,,,,,stim2/pa-30.wav,5dab79a5525a7600139cd31e,2020-12-16_22h03.07.009,English_step1,2020.2.3,Win32,60,,,,,,,,,,,,,,,,,,right,0.624835,,,,,,,,0,7,7,15,1,,
,,,,,,,stim2/pa-10.wav,5dab79a5525a7600139cd31e,2020-12-16_22h03.07.009,English_step1,2020.2.3,Win32,60,,,,,,,,,,,,,,,,,,right,0.735755,,,,,,,,0,8,8,11,1,,
,,,,,,,stim2/pa+10.wav,5dab79a5525a7600139cd31e,2020-12-16_22h03.07.009,English_step1,2020.2.3,Win32,60,,,,,,,,,,,,,,,,,,right,0.655715,,,,,,,,0,9,9,1,1,,
,,,,,,,stim2/pa-25.wav,5dab79a5525a7600139cd31e,2020-12-16_22h03.07.009,English_step1,2020.2.3,Win32,60,,,,,,,,,,,,,,,,,,right,1.00312,,,,,,,,0,10,10,14,1,,
,,,,,,,stim2/pa+20.wav,5dab79a5525a7600139cd31e,2020-12-16_22h03.07.009,English_step1,2020.2.3,Win32,60,,,,,,,,,,,,,,,,,,right,0.73471,,,,,,,,0,11,11,3,1,,
,,,,,,,stim2/pa-15.wav,5dab79a5525a7600139cd31e,2020-12-16_22h03.07.009,English_step1,2020.2.3,Win32,60,,,,,,,,,,,,,,,,,,right,0.67956,,,,,,,,0,12,12,12,1,,
,,,,,,,stim2/pa+45.wav,5dab79a5525a7600139cd31e,2020-12-16_22h03.07.009,English_step1,2020.2.3,Win32,60,,,,,,,,,,,,,,,,,,right,0.69197,,,,,,,,0,13,13,8,1,,
,,,,,,,stim2/pa+25.wav,5dab79a5525a7600139cd31e,2020-12-16_22h03.07.009,English_step1,2020.2.3,Win32,60,,,,,,,,,,,,,,,,,,right,0.85295,,,,,,,,0,14,14,4,1,,
,,,,,,,stim2/pa-05.wav,5dab79a5525a7600139cd31e,2020-12-16_22h03.07.009,English_step1,2020.2.3,Win32,60,,,,,,,,,,,,,,,,,,right,0.70675,,,,,,,,0,15,15,10,1,,
,,,,,,,stim2/pa-35.wav,5dab79a5525a7600139cd31e,2020-12-16_22h03.07.009,English_step1,2020.2.3,Win32,60,,,,,,,,,,,,,,,,,,right,0.903905,,,,,,,,0,16,16,16,1,,
,,,,,,,stim2/pa-15.wav,5dab79a5525a7600139cd31e,2020-12-16_22h03.07.009,English_step1,2020.2.3,Win32,60,,,,,,,,,,,,,,,,,,right,0.60728,,,,,,,,1,0,17,12,1,,
,,,,,,,stim2/pa-10.wav,5dab79a5525a7600139cd31e,2020-12-16_22h03.07.009,English_step1,2020.2.3,Win32,60,,,,,,,,,,,,,,,,,,right,0.574495,,,,,,,,1,1,18,11,1,,
,,,,,,,stim2/pa+25.wav,5dab79a5525a7600139cd31e,2020-12-16_22h03.07.009,English_step1,2020.2.3,Win32,60,,,,,,,,,,,,,,,,,,right,0.72358,,,,,,,,1,2,19,4,1,,
,,,,,,,stim2/pa-30.wav,5dab79a5525a7600139cd31e,2020-12-16_22h03.07.009,English_step1,2020.2.3,Win32,60,,,,,,,,,,,,,,,,,,right,1.20298,,,,,,,,1,3,20,15,1,,
,,,,,,,stim2/pa+15.wav,5dab79a5525a7600139cd31e,2020-12-16_22h03.07.009,English_step1,2020.2.3,Win32,60,,,,,,,,,,,,,,,,,,right,1.56961,,,,,,,,1,4,21,2,1,,
,,,,,,,stim2/pa+20.wav,5dab79a5525a7600139cd31e,2020-12-16_22h03.07.009,English_step1,2020.2.3,Win32,60,,,,,,,,,,,,,,,,,,left,1.75464,,,,,,,,1,5,22,3,1,,
,,,,,,,stim2/pa-35.wav,5dab79a5525a7600139cd31e,2020-12-16_22h03.07.009,English_step1,2020.2.3,Win32,60,,,,,,,,,,,,,,,,,,right,0.913775,,,,,,,,1,6,23,16,1,,
,,,,,,,stim2/pa-05.wav,5dab79a5525a7600139cd31e,2020-12-16_22h03.07.009,English_step1,2020.2.3,Win32,60,,,,,,,,,,,,,,,,,,right,0.889035,,,,,,,,1,7,24,10,1,,
,,,,,,,stim2/pa+50.wav,5dab79a5525a7600139cd31e,2020-12-16_22h03.07.009,English_step1,2020.2.3,Win32,60,,,,,,,,,,,,,,,,,,right,1.058045,,,,,,,,1,8,25,9,1,,
,,,,,,,stim2/pa+35.wav,5dab79a5525a7600139cd31e,2020-12-16_22h03.07.009,English_step1,2020.2.3,Win32,60,,,,,,,,,,,,,,,,,,right,0.71392,,,,,,,,1,9,26,6,1,,
,,,,,,,stim2/pa+10.wav,5dab79a5525a7600139cd31e,2020-12-16_22h03.07.009,English_step1,2020.2.3,Win32,60,,,,,,,,,,,,,,,,,,right,0.88255,,,,,,,,1,10,27,1,1,,
,,,,,,,stim2/pa+45.wav,5dab79a5525a7600139cd31e,2020-12-16_22h03.07.009,English_step1,2020.2.3,Win32,60,,,,,,,,,,,,,,,,,,left,0.80668,,,,,,,,1,11,28,8,1,,
,,,,,,,stim2/pa+30.wav,5dab79a5525a7600139cd31e,2020-12-16_22h03.07.009,English_step1,2020.2.3,Win32,60,,,,,,,,,,,,,,,,,,right,0.702495,,,,,,,,1,12,29,5,1,,
,,,,,,,stim2/pa-20.wav,5dab79a5525a7600139cd31e,2020-12-16_22h03.07.009,English_step1,2020.2.3,Win32,60,,,,,,,,,,,,,,,,,,right,0.80189,,,,,,,,1,13,30,13,1,,
,,,,,,,stim2/pa+40.wav,5dab79a5525a7600139cd31e,2020-12-16_22h03.07.009,English_step1,2020.2.3,Win32,60,,,,,,,,,,,,,,,,,,right,0.64402,,,,,,,,1,14,31,7,1,,
,,,,,,,stim2/pa-25.wav,5dab79a5525a7600139cd31e,2020-12-16_22h03.07.009,English_step1,2020.2.3,Win32,60,,,,,,,,,,,,,,,,,,right,0.553985,,,,,,,,1,15,32,14,1,,
,,,,,,,stim2/pa+05.wav,5dab79a5525a7600139cd31e,2020-12-16_22h03.07.009,English_step1,2020.2.3,Win32,60,,,,,,,,,,,,,,,,,,right,0.502545,,,,,,,,1,16,33,0,1,,
,,,,,,,,5dab79a5525a7600139cd31e,2020-12-16_22h03.07.009,English_step1,2020.2.3,Win32,60,,,,,,,,,,,,,,,,,,,,,,,,,,,,,,,,space,6.53057
