resp.keys,resp.rt,trials.thisRepN,trials.thisTrialN,trials.thisN,trials.thisIndex,trials.ran,stimuli,participant,date,expName,psychopyVersion,OS,frameRate,gotResponse.keys,gotResponse.rt,resp_2.keys,resp_2.rt,trials_2.thisRepN,trials_2.thisTrialN,trials_2.thisN,trials_2.thisIndex,trials_2.ran,key_resp_3.keys,key_resp_3.rt,trials_4.thisRepN,trials_4.thisTrialN,trials_4.thisN,trials_4.thisIndex,trials_4.ran,resp_3.keys,resp_3.rt,trials_3.thisRepN,trials_3.thisTrialN,trials_3.thisN,trials_3.thisIndex,trials_3.ran,key_resp_2.keys,key_resp_2.rt,trials_5.thisRepN,trials_5.thisTrialN,trials_5.thisN,trials_5.thisIndex,trials_5.ran,key_resp.keys,key_resp.rt
left,1.476725,0,0,0,0,1,stim/VC_01.wav,5e88a67c651ae60009602e69,2021-01-21_11h13.54.507,Hungarian_step4,2020.2.3,Win32,60,,,,,,,,,,,,,,,,,,,,,,,,,,,,,,,,
right,0.666895,0,1,1,1,1,stim/VC_11.wav,5e88a67c651ae60009602e69,2021-01-21_11h13.54.507,Hungarian_step4,2020.2.3,Win32,60,,,,,,,,,,,,,,,,,,,,,,,,,,,,,,,,
,,,,,,,stim/VC_09.wav,5e88a67c651ae60009602e69,2021-01-21_11h13.54.507,Hungarian_step4,2020.2.3,Win32,60,space,0.70032,right,0.451495,0,0,0,8,1,,,,,,,,,,,,,,,,,,,,,,,
,,,,,,,stim/VC_11.wav,5e88a67c651ae60009602e69,2021-01-21_11h13.54.507,Hungarian_step4,2020.2.3,Win32,60,,,right,0.400035,0,1,1,10,1,,,,,,,,,,,,,,,,,,,,,,,
,,,,,,,stim/VC_01.wav,5e88a67c651ae60009602e69,2021-01-21_11h13.54.507,Hungarian_step4,2020.2.3,Win32,60,,,left,0.33888,0,2,2,0,1,,,,,,,,,,,,,,,,,,,,,,,
,,,,,,,stim/VC_05.wav,5e88a67c651ae60009602e69,2021-01-21_11h13.54.507,Hungarian_step4,2020.2.3,Win32,60,,,right,0.41549,0,3,3,4,1,,,,,,,,,,,,,,,,,,,,,,,
,,,,,,,stim/VC_02.wav,5e88a67c651ae60009602e69,2021-01-21_11h13.54.507,Hungarian_step4,2020.2.3,Win32,60,,,left,0.33963,0,4,4,1,1,,,,,,,,,,,,,,,,,,,,,,,
,,,,,,,stim/VC_06.wav,5e88a67c651ae60009602e69,2021-01-21_11h13.54.507,Hungarian_step4,2020.2.3,Win32,60,,,right,0.418555,0,5,5,5,1,,,,,,,,,,,,,,,,,,,,,,,
,,,,,,,stim/VC_07.wav,5e88a67c651ae60009602e69,2021-01-21_11h13.54.507,Hungarian_step4,2020.2.3,Win32,60,,,right,0.351505,0,6,6,6,1,,,,,,,,,,,,,,,,,,,,,,,
,,,,,,,stim/VC_10.wav,5e88a67c651ae60009602e69,2021-01-21_11h13.54.507,Hungarian_step4,2020.2.3,Win32,60,,,right,0.337635,0,7,7,9,1,,,,,,,,,,,,,,,,,,,,,,,
,,,,,,,stim/VC_08.wav,5e88a67c651ae60009602e69,2021-01-21_11h13.54.507,Hungarian_step4,2020.2.3,Win32,60,,,right,0.307765,0,8,8,7,1,,,,,,,,,,,,,,,,,,,,,,,
,,,,,,,stim/VC_04.wav,5e88a67c651ae60009602e69,2021-01-21_11h13.54.507,Hungarian_step4,2020.2.3,Win32,60,,,right,0.500275,0,9,9,3,1,,,,,,,,,,,,,,,,,,,,,,,
,,,,,,,stim/VC_03.wav,5e88a67c651ae60009602e69,2021-01-21_11h13.54.507,Hungarian_step4,2020.2.3,Win32,60,,,right,0.437015,0,10,10,2,1,,,,,,,,,,,,,,,,,,,,,,,
,,,,,,,stim/VC_06.wav,5e88a67c651ae60009602e69,2021-01-21_11h13.54.507,Hungarian_step4,2020.2.3,Win32,60,,,right,0.32331,1,0,11,5,1,,,,,,,,,,,,,,,,,,,,,,,
,,,,,,,stim/VC_09.wav,5e88a67c651ae60009602e69,2021-01-21_11h13.54.507,Hungarian_step4,2020.2.3,Win32,60,,,right,0.356605,1,1,12,8,1,,,,,,,,,,,,,,,,,,,,,,,
,,,,,,,stim/VC_05.wav,5e88a67c651ae60009602e69,2021-01-21_11h13.54.507,Hungarian_step4,2020.2.3,Win32,60,,,right,0.333515,1,2,13,4,1,,,,,,,,,,,,,,,,,,,,,,,
,,,,,,,stim/VC_03.wav,5e88a67c651ae60009602e69,2021-01-21_11h13.54.507,Hungarian_step4,2020.2.3,Win32,60,,,left,0.42466,1,3,14,2,1,,,,,,,,,,,,,,,,,,,,,,,
,,,,,,,stim/VC_04.wav,5e88a67c651ae60009602e69,2021-01-21_11h13.54.507,Hungarian_step4,2020.2.3,Win32,60,,,right,0.53309,1,4,15,3,1,,,,,,,,,,,,,,,,,,,,,,,
,,,,,,,stim/VC_01.wav,5e88a67c651ae60009602e69,2021-01-21_11h13.54.507,Hungarian_step4,2020.2.3,Win32,60,,,left,0.34868,1,5,16,0,1,,,,,,,,,,,,,,,,,,,,,,,
,,,,,,,stim/VC_07.wav,5e88a67c651ae60009602e69,2021-01-21_11h13.54.507,Hungarian_step4,2020.2.3,Win32,60,,,right,0.44755,1,6,17,6,1,,,,,,,,,,,,,,,,,,,,,,,
,,,,,,,stim/VC_11.wav,5e88a67c651ae60009602e69,2021-01-21_11h13.54.507,Hungarian_step4,2020.2.3,Win32,60,,,right,0.405795,1,7,18,10,1,,,,,,,,,,,,,,,,,,,,,,,
,,,,,,,stim/VC_08.wav,5e88a67c651ae60009602e69,2021-01-21_11h13.54.507,Hungarian_step4,2020.2.3,Win32,60,,,right,0.34166,1,8,19,7,1,,,,,,,,,,,,,,,,,,,,,,,
,,,,,,,stim/VC_10.wav,5e88a67c651ae60009602e69,2021-01-21_11h13.54.507,Hungarian_step4,2020.2.3,Win32,60,,,right,0.336325,1,9,20,9,1,,,,,,,,,,,,,,,,,,,,,,,
,,,,,,,stim/VC_02.wav,5e88a67c651ae60009602e69,2021-01-21_11h13.54.507,Hungarian_step4,2020.2.3,Win32,60,,,left,0.373235,1,10,21,1,1,,,,,,,,,,,,,,,,,,,,,,,
,,,,,,,stim/VC_07.wav,5e88a67c651ae60009602e69,2021-01-21_11h13.54.507,Hungarian_step4,2020.2.3,Win32,60,,,right,0.413245,2,0,22,6,1,,,,,,,,,,,,,,,,,,,,,,,
,,,,,,,stim/VC_04.wav,5e88a67c651ae60009602e69,2021-01-21_11h13.54.507,Hungarian_step4,2020.2.3,Win32,60,,,right,0.54893,2,1,23,3,1,,,,,,,,,,,,,,,,,,,,,,,
,,,,,,,stim/VC_08.wav,5e88a67c651ae60009602e69,2021-01-21_11h13.54.507,Hungarian_step4,2020.2.3,Win32,60,,,right,0.40096,2,2,24,7,1,,,,,,,,,,,,,,,,,,,,,,,
,,,,,,,stim/VC_02.wav,5e88a67c651ae60009602e69,2021-01-21_11h13.54.507,Hungarian_step4,2020.2.3,Win32,60,,,left,0.390055,2,3,25,1,1,,,,,,,,,,,,,,,,,,,,,,,
,,,,,,,stim/VC_03.wav,5e88a67c651ae60009602e69,2021-01-21_11h13.54.507,Hungarian_step4,2020.2.3,Win32,60,,,left,0.45004,2,4,26,2,1,,,,,,,,,,,,,,,,,,,,,,,
,,,,,,,stim/VC_06.wav,5e88a67c651ae60009602e69,2021-01-21_11h13.54.507,Hungarian_step4,2020.2.3,Win32,60,,,right,0.40028,2,5,27,5,1,,,,,,,,,,,,,,,,,,,,,,,
,,,,,,,stim/VC_05.wav,5e88a67c651ae60009602e69,2021-01-21_11h13.54.507,Hungarian_step4,2020.2.3,Win32,60,,,right,0.37538,2,6,28,4,1,,,,,,,,,,,,,,,,,,,,,,,
,,,,,,,stim/VC_11.wav,5e88a67c651ae60009602e69,2021-01-21_11h13.54.507,Hungarian_step4,2020.2.3,Win32,60,,,right,0.385765,2,7,29,10,1,,,,,,,,,,,,,,,,,,,,,,,
,,,,,,,stim/VC_01.wav,5e88a67c651ae60009602e69,2021-01-21_11h13.54.507,Hungarian_step4,2020.2.3,Win32,60,,,left,0.377125,2,8,30,0,1,,,,,,,,,,,,,,,,,,,,,,,
,,,,,,,stim/VC_10.wav,5e88a67c651ae60009602e69,2021-01-21_11h13.54.507,Hungarian_step4,2020.2.3,Win32,60,,,right,0.303575,2,9,31,9,1,,,,,,,,,,,,,,,,,,,,,,,
,,,,,,,stim/VC_09.wav,5e88a67c651ae60009602e69,2021-01-21_11h13.54.507,Hungarian_step4,2020.2.3,Win32,60,,,right,0.3496,2,10,32,8,1,,,,,,,,,,,,,,,,,,,,,,,
,,,,,,,stim/VC_03.wav,5e88a67c651ae60009602e69,2021-01-21_11h13.54.507,Hungarian_step4,2020.2.3,Win32,60,,,left,0.4688,,,,,,3,1.368625,0,0,0,2,1,,,,,,,,,,,,,,,,
,,,,,,,stim/VC_04.wav,5e88a67c651ae60009602e69,2021-01-21_11h13.54.507,Hungarian_step4,2020.2.3,Win32,60,,,left,0.469615,,,,,,,,0,1,1,3,1,,,,,,,,,,,,,,,,
,,,,,,,stim/VC_07.wav,5e88a67c651ae60009602e69,2021-01-21_11h13.54.507,Hungarian_step4,2020.2.3,Win32,60,,,right,0.45049,,,,,,,,0,2,2,6,1,,,,,,,,,,,,,,,,
,,,,,,,stim/VC_09.wav,5e88a67c651ae60009602e69,2021-01-21_11h13.54.507,Hungarian_step4,2020.2.3,Win32,60,,,right,0.35005,,,,,,,,0,3,3,8,1,,,,,,,,,,,,,,,,
,,,,,,,stim/VC_08.wav,5e88a67c651ae60009602e69,2021-01-21_11h13.54.507,Hungarian_step4,2020.2.3,Win32,60,,,left,0.399355,,,,,,,,0,4,4,7,1,,,,,,,,,,,,,,,,
,,,,,,,stim/VC_02.wav,5e88a67c651ae60009602e69,2021-01-21_11h13.54.507,Hungarian_step4,2020.2.3,Win32,60,,,left,0.482875,,,,,,,,0,5,5,1,1,,,,,,,,,,,,,,,,
,,,,,,,stim/VC_01.wav,5e88a67c651ae60009602e69,2021-01-21_11h13.54.507,Hungarian_step4,2020.2.3,Win32,60,,,left,0.499965,,,,,,,,0,6,6,0,1,,,,,,,,,,,,,,,,
,,,,,,,stim/VC_05.wav,5e88a67c651ae60009602e69,2021-01-21_11h13.54.507,Hungarian_step4,2020.2.3,Win32,60,,,right,0.35288,,,,,,,,0,7,7,4,1,,,,,,,,,,,,,,,,
,,,,,,,stim/VC_06.wav,5e88a67c651ae60009602e69,2021-01-21_11h13.54.507,Hungarian_step4,2020.2.3,Win32,60,,,right,0.4221,,,,,,,,0,8,8,5,1,,,,,,,,,,,,,,,,
,,,,,,,stim/VC_10.wav,5e88a67c651ae60009602e69,2021-01-21_11h13.54.507,Hungarian_step4,2020.2.3,Win32,60,,,right,0.390525,,,,,,,,0,9,9,9,1,,,,,,,,,,,,,,,,
,,,,,,,stim/VC_11.wav,5e88a67c651ae60009602e69,2021-01-21_11h13.54.507,Hungarian_step4,2020.2.3,Win32,60,,,right,0.34782,,,,,,,,0,10,10,10,1,,,,,,,,,,,,,,,,
,,,,,,,stim/VC_04.wav,5e88a67c651ae60009602e69,2021-01-21_11h13.54.507,Hungarian_step4,2020.2.3,Win32,60,,,right,0.675035,,,,,,,,1,0,11,3,1,,,,,,,,,,,,,,,,
,,,,,,,stim/VC_03.wav,5e88a67c651ae60009602e69,2021-01-21_11h13.54.507,Hungarian_step4,2020.2.3,Win32,60,,,right,0.468885,,,,,,,,1,1,12,2,1,,,,,,,,,,,,,,,,
,,,,,,,stim/VC_07.wav,5e88a67c651ae60009602e69,2021-01-21_11h13.54.507,Hungarian_step4,2020.2.3,Win32,60,,,right,0.434705,,,,,,,,1,2,13,6,1,,,,,,,,,,,,,,,,
,,,,,,,stim/VC_05.wav,5e88a67c651ae60009602e69,2021-01-21_11h13.54.507,Hungarian_step4,2020.2.3,Win32,60,,,right,0.37412,,,,,,,,1,3,14,4,1,,,,,,,,,,,,,,,,
,,,,,,,stim/VC_10.wav,5e88a67c651ae60009602e69,2021-01-21_11h13.54.507,Hungarian_step4,2020.2.3,Win32,60,,,right,0.322325,,,,,,,,1,4,15,9,1,,,,,,,,,,,,,,,,
,,,,,,,stim/VC_08.wav,5e88a67c651ae60009602e69,2021-01-21_11h13.54.507,Hungarian_step4,2020.2.3,Win32,60,,,right,0.323785,,,,,,,,1,5,16,7,1,,,,,,,,,,,,,,,,
,,,,,,,stim/VC_06.wav,5e88a67c651ae60009602e69,2021-01-21_11h13.54.507,Hungarian_step4,2020.2.3,Win32,60,,,right,0.367675,,,,,,,,1,6,17,5,1,,,,,,,,,,,,,,,,
,,,,,,,stim/VC_01.wav,5e88a67c651ae60009602e69,2021-01-21_11h13.54.507,Hungarian_step4,2020.2.3,Win32,60,,,left,0.400715,,,,,,,,1,7,18,0,1,,,,,,,,,,,,,,,,
,,,,,,,stim/VC_02.wav,5e88a67c651ae60009602e69,2021-01-21_11h13.54.507,Hungarian_step4,2020.2.3,Win32,60,,,left,0.393345,,,,,,,,1,8,19,1,1,,,,,,,,,,,,,,,,
,,,,,,,stim/VC_11.wav,5e88a67c651ae60009602e69,2021-01-21_11h13.54.507,Hungarian_step4,2020.2.3,Win32,60,,,right,0.31749,,,,,,,,1,9,20,10,1,,,,,,,,,,,,,,,,
,,,,,,,stim/VC_09.wav,5e88a67c651ae60009602e69,2021-01-21_11h13.54.507,Hungarian_step4,2020.2.3,Win32,60,,,right,0.344385,,,,,,,,1,10,21,8,1,,,,,,,,,,,,,,,,
,,,,,,,stim2/pa+45.wav,5e88a67c651ae60009602e69,2021-01-21_11h13.54.507,Hungarian_step4,2020.2.3,Win32,60,,,,,,,,,,,,,,,,,left,1.18313,0,0,0,8,1,,,,,,,,,
,,,,,,,stim2/pa+15.wav,5e88a67c651ae60009602e69,2021-01-21_11h13.54.507,Hungarian_step4,2020.2.3,Win32,60,,,,,,,,,,,,,,,,,left,0.499495,0,1,1,2,1,,,,,,,,,
,,,,,,,stim2/pa+30.wav,5e88a67c651ae60009602e69,2021-01-21_11h13.54.507,Hungarian_step4,2020.2.3,Win32,60,,,,,,,,,,,,,,,,,left,0.400565,0,2,2,5,1,,,,,,,,,
,,,,,,,stim2/pa+50.wav,5e88a67c651ae60009602e69,2021-01-21_11h13.54.507,Hungarian_step4,2020.2.3,Win32,60,,,,,,,,,,,,,,,,,left,0.3658,0,3,3,9,1,,,,,,,,,
,,,,,,,stim2/pa+05.wav,5e88a67c651ae60009602e69,2021-01-21_11h13.54.507,Hungarian_step4,2020.2.3,Win32,60,,,,,,,,,,,,,,,,,left,0.34969,0,4,4,0,1,,,,,,,,,
,,,,,,,stim2/pa+25.wav,5e88a67c651ae60009602e69,2021-01-21_11h13.54.507,Hungarian_step4,2020.2.3,Win32,60,,,,,,,,,,,,,,,,,left,0.375905,0,5,5,4,1,,,,,,,,,
,,,,,,,stim2/pa+10.wav,5e88a67c651ae60009602e69,2021-01-21_11h13.54.507,Hungarian_step4,2020.2.3,Win32,60,,,,,,,,,,,,,,,,,left,0.539495,0,6,6,1,1,,,,,,,,,
,,,,,,,stim2/pa+20.wav,5e88a67c651ae60009602e69,2021-01-21_11h13.54.507,Hungarian_step4,2020.2.3,Win32,60,,,,,,,,,,,,,,,,,left,0.33724,0,7,7,3,1,,,,,,,,,
,,,,,,,stim2/pa-05.wav,5e88a67c651ae60009602e69,2021-01-21_11h13.54.507,Hungarian_step4,2020.2.3,Win32,60,,,,,,,,,,,,,,,,,right,0.34071,0,8,8,10,1,,,,,,,,,
,,,,,,,stim2/pa-10.wav,5e88a67c651ae60009602e69,2021-01-21_11h13.54.507,Hungarian_step4,2020.2.3,Win32,60,,,,,,,,,,,,,,,,,right,0.332685,0,9,9,11,1,,,,,,,,,
,,,,,,,stim2/pa+40.wav,5e88a67c651ae60009602e69,2021-01-21_11h13.54.507,Hungarian_step4,2020.2.3,Win32,60,,,,,,,,,,,,,,,,,left,0.4331,0,10,10,7,1,,,,,,,,,
,,,,,,,stim2/pa-35.wav,5e88a67c651ae60009602e69,2021-01-21_11h13.54.507,Hungarian_step4,2020.2.3,Win32,60,,,,,,,,,,,,,,,,,right,0.38359,0,11,11,16,1,,,,,,,,,
,,,,,,,stim2/pa-20.wav,5e88a67c651ae60009602e69,2021-01-21_11h13.54.507,Hungarian_step4,2020.2.3,Win32,60,,,,,,,,,,,,,,,,,right,0.30247,0,12,12,13,1,,,,,,,,,
,,,,,,,stim2/pa-15.wav,5e88a67c651ae60009602e69,2021-01-21_11h13.54.507,Hungarian_step4,2020.2.3,Win32,60,,,,,,,,,,,,,,,,,right,0.315655,0,13,13,12,1,,,,,,,,,
,,,,,,,stim2/pa-25.wav,5e88a67c651ae60009602e69,2021-01-21_11h13.54.507,Hungarian_step4,2020.2.3,Win32,60,,,,,,,,,,,,,,,,,right,0.459005,0,14,14,14,1,,,,,,,,,
,,,,,,,stim2/pa+35.wav,5e88a67c651ae60009602e69,2021-01-21_11h13.54.507,Hungarian_step4,2020.2.3,Win32,60,,,,,,,,,,,,,,,,,left,0.305105,0,15,15,6,1,,,,,,,,,
,,,,,,,stim2/pa-30.wav,5e88a67c651ae60009602e69,2021-01-21_11h13.54.507,Hungarian_step4,2020.2.3,Win32,60,,,,,,,,,,,,,,,,,right,0.306145,0,16,16,15,1,,,,,,,,,
,,,,,,,stim2/pa-35.wav,5e88a67c651ae60009602e69,2021-01-21_11h13.54.507,Hungarian_step4,2020.2.3,Win32,60,,,,,,,,,,,,,,,,,right,0.31911,1,0,17,16,1,,,,,,,,,
,,,,,,,stim2/pa+45.wav,5e88a67c651ae60009602e69,2021-01-21_11h13.54.507,Hungarian_step4,2020.2.3,Win32,60,,,,,,,,,,,,,,,,,left,0.31921,1,1,18,8,1,,,,,,,,,
,,,,,,,stim2/pa+20.wav,5e88a67c651ae60009602e69,2021-01-21_11h13.54.507,Hungarian_step4,2020.2.3,Win32,60,,,,,,,,,,,,,,,,,left,0.343905,1,2,19,3,1,,,,,,,,,
,,,,,,,stim2/pa-25.wav,5e88a67c651ae60009602e69,2021-01-21_11h13.54.507,Hungarian_step4,2020.2.3,Win32,60,,,,,,,,,,,,,,,,,right,0.30573,1,3,20,14,1,,,,,,,,,
,,,,,,,stim2/pa-30.wav,5e88a67c651ae60009602e69,2021-01-21_11h13.54.507,Hungarian_step4,2020.2.3,Win32,60,,,,,,,,,,,,,,,,,right,0.284855,1,4,21,15,1,,,,,,,,,
,,,,,,,stim2/pa+15.wav,5e88a67c651ae60009602e69,2021-01-21_11h13.54.507,Hungarian_step4,2020.2.3,Win32,60,,,,,,,,,,,,,,,,,left,0.350635,1,5,22,2,1,,,,,,,,,
,,,,,,,stim2/pa-20.wav,5e88a67c651ae60009602e69,2021-01-21_11h13.54.507,Hungarian_step4,2020.2.3,Win32,60,,,,,,,,,,,,,,,,,right,0.23321,1,6,23,13,1,,,,,,,,,
,,,,,,,stim2/pa+25.wav,5e88a67c651ae60009602e69,2021-01-21_11h13.54.507,Hungarian_step4,2020.2.3,Win32,60,,,,,,,,,,,,,,,,,left,0.426515,1,7,24,4,1,,,,,,,,,
,,,,,,,stim2/pa+40.wav,5e88a67c651ae60009602e69,2021-01-21_11h13.54.507,Hungarian_step4,2020.2.3,Win32,60,,,,,,,,,,,,,,,,,left,0.408595,1,8,25,7,1,,,,,,,,,
,,,,,,,stim2/pa-15.wav,5e88a67c651ae60009602e69,2021-01-21_11h13.54.507,Hungarian_step4,2020.2.3,Win32,60,,,,,,,,,,,,,,,,,right,0.32398,1,9,26,12,1,,,,,,,,,
,,,,,,,stim2/pa-10.wav,5e88a67c651ae60009602e69,2021-01-21_11h13.54.507,Hungarian_step4,2020.2.3,Win32,60,,,,,,,,,,,,,,,,,right,0.524945,1,10,27,11,1,,,,,,,,,
,,,,,,,stim2/pa+35.wav,5e88a67c651ae60009602e69,2021-01-21_11h13.54.507,Hungarian_step4,2020.2.3,Win32,60,,,,,,,,,,,,,,,,,left,0.399905,1,11,28,6,1,,,,,,,,,
,,,,,,,stim2/pa+30.wav,5e88a67c651ae60009602e69,2021-01-21_11h13.54.507,Hungarian_step4,2020.2.3,Win32,60,,,,,,,,,,,,,,,,,left,0.38401,1,12,29,5,1,,,,,,,,,
,,,,,,,stim2/pa+50.wav,5e88a67c651ae60009602e69,2021-01-21_11h13.54.507,Hungarian_step4,2020.2.3,Win32,60,,,,,,,,,,,,,,,,,left,0.387305,1,13,30,9,1,,,,,,,,,
,,,,,,,stim2/pa-05.wav,5e88a67c651ae60009602e69,2021-01-21_11h13.54.507,Hungarian_step4,2020.2.3,Win32,60,,,,,,,,,,,,,,,,,right,0.350095,1,14,31,10,1,,,,,,,,,
,,,,,,,stim2/pa+05.wav,5e88a67c651ae60009602e69,2021-01-21_11h13.54.507,Hungarian_step4,2020.2.3,Win32,60,,,,,,,,,,,,,,,,,left,0.39526,1,15,32,0,1,,,,,,,,,
,,,,,,,stim2/pa+10.wav,5e88a67c651ae60009602e69,2021-01-21_11h13.54.507,Hungarian_step4,2020.2.3,Win32,60,,,,,,,,,,,,,,,,,left,0.36819,1,16,33,1,1,,,,,,,,,
,,,,,,,stim2/pa+35.wav,5e88a67c651ae60009602e69,2021-01-21_11h13.54.507,Hungarian_step4,2020.2.3,Win32,60,,,,,,,,,,,,,,,,,left,0.366825,2,0,34,6,1,,,,,,,,,
,,,,,,,stim2/pa-10.wav,5e88a67c651ae60009602e69,2021-01-21_11h13.54.507,Hungarian_step4,2020.2.3,Win32,60,,,,,,,,,,,,,,,,,left,0.370315,2,1,35,11,1,,,,,,,,,
,,,,,,,stim2/pa+15.wav,5e88a67c651ae60009602e69,2021-01-21_11h13.54.507,Hungarian_step4,2020.2.3,Win32,60,,,,,,,,,,,,,,,,,left,0.38516,2,2,36,2,1,,,,,,,,,
,,,,,,,stim2/pa+45.wav,5e88a67c651ae60009602e69,2021-01-21_11h13.54.507,Hungarian_step4,2020.2.3,Win32,60,,,,,,,,,,,,,,,,,left,0.39898,2,3,37,8,1,,,,,,,,,
,,,,,,,stim2/pa+10.wav,5e88a67c651ae60009602e69,2021-01-21_11h13.54.507,Hungarian_step4,2020.2.3,Win32,60,,,,,,,,,,,,,,,,,left,0.368305,2,4,38,1,1,,,,,,,,,
,,,,,,,stim2/pa+25.wav,5e88a67c651ae60009602e69,2021-01-21_11h13.54.507,Hungarian_step4,2020.2.3,Win32,60,,,,,,,,,,,,,,,,,left,0.350705,2,5,39,4,1,,,,,,,,,
,,,,,,,stim2/pa+20.wav,5e88a67c651ae60009602e69,2021-01-21_11h13.54.507,Hungarian_step4,2020.2.3,Win32,60,,,,,,,,,,,,,,,,,left,0.28557,2,6,40,3,1,,,,,,,,,
,,,,,,,stim2/pa-15.wav,5e88a67c651ae60009602e69,2021-01-21_11h13.54.507,Hungarian_step4,2020.2.3,Win32,60,,,,,,,,,,,,,,,,,right,0.366355,2,7,41,12,1,,,,,,,,,
,,,,,,,stim2/pa+50.wav,5e88a67c651ae60009602e69,2021-01-21_11h13.54.507,Hungarian_step4,2020.2.3,Win32,60,,,,,,,,,,,,,,,,,left,0.3886,2,8,42,9,1,,,,,,,,,
,,,,,,,stim2/pa+40.wav,5e88a67c651ae60009602e69,2021-01-21_11h13.54.507,Hungarian_step4,2020.2.3,Win32,60,,,,,,,,,,,,,,,,,left,0.383505,2,9,43,7,1,,,,,,,,,
,,,,,,,stim2/pa-25.wav,5e88a67c651ae60009602e69,2021-01-21_11h13.54.507,Hungarian_step4,2020.2.3,Win32,60,,,,,,,,,,,,,,,,,right,0.344585,2,10,44,14,1,,,,,,,,,
,,,,,,,stim2/pa-35.wav,5e88a67c651ae60009602e69,2021-01-21_11h13.54.507,Hungarian_step4,2020.2.3,Win32,60,,,,,,,,,,,,,,,,,right,0.345795,2,11,45,16,1,,,,,,,,,
,,,,,,,stim2/pa-20.wav,5e88a67c651ae60009602e69,2021-01-21_11h13.54.507,Hungarian_step4,2020.2.3,Win32,60,,,,,,,,,,,,,,,,,right,0.36165,2,12,46,13,1,,,,,,,,,
,,,,,,,stim2/pa+30.wav,5e88a67c651ae60009602e69,2021-01-21_11h13.54.507,Hungarian_step4,2020.2.3,Win32,60,,,,,,,,,,,,,,,,,left,1.02094,2,13,47,5,1,,,,,,,,,
,,,,,,,stim2/pa-30.wav,5e88a67c651ae60009602e69,2021-01-21_11h13.54.507,Hungarian_step4,2020.2.3,Win32,60,,,,,,,,,,,,,,,,,right,0.46662,2,14,48,15,1,,,,,,,,,
,,,,,,,stim2/pa+05.wav,5e88a67c651ae60009602e69,2021-01-21_11h13.54.507,Hungarian_step4,2020.2.3,Win32,60,,,,,,,,,,,,,,,,,left,0.538435,2,15,49,0,1,,,,,,,,,
,,,,,,,stim2/pa-05.wav,5e88a67c651ae60009602e69,2021-01-21_11h13.54.507,Hungarian_step4,2020.2.3,Win32,60,,,,,,,,,,,,,,,,,left,0.769785,2,16,50,10,1,,,,,,,,,
,,,,,,,stim2/pa+25.wav,5e88a67c651ae60009602e69,2021-01-21_11h13.54.507,Hungarian_step4,2020.2.3,Win32,60,,,,,,,,,,,,,,,,,left,0.68895,,,,,,f,3.30366,0,0,0,4,1,,
,,,,,,,stim2/pa+40.wav,5e88a67c651ae60009602e69,2021-01-21_11h13.54.507,Hungarian_step4,2020.2.3,Win32,60,,,,,,,,,,,,,,,,,left,0.46709,,,,,,,,0,1,1,7,1,,
,,,,,,,stim2/pa-15.wav,5e88a67c651ae60009602e69,2021-01-21_11h13.54.507,Hungarian_step4,2020.2.3,Win32,60,,,,,,,,,,,,,,,,,right,0.40045,,,,,,,,0,2,2,12,1,,
,,,,,,,stim2/pa+30.wav,5e88a67c651ae60009602e69,2021-01-21_11h13.54.507,Hungarian_step4,2020.2.3,Win32,60,,,,,,,,,,,,,,,,,left,0.35129,,,,,,,,0,3,3,5,1,,
,,,,,,,stim2/pa-30.wav,5e88a67c651ae60009602e69,2021-01-21_11h13.54.507,Hungarian_step4,2020.2.3,Win32,60,,,,,,,,,,,,,,,,,right,0.37957,,,,,,,,0,4,4,15,1,,
,,,,,,,stim2/pa-05.wav,5e88a67c651ae60009602e69,2021-01-21_11h13.54.507,Hungarian_step4,2020.2.3,Win32,60,,,,,,,,,,,,,,,,,left,0.39233,,,,,,,,0,5,5,10,1,,
,,,,,,,stim2/pa+10.wav,5e88a67c651ae60009602e69,2021-01-21_11h13.54.507,Hungarian_step4,2020.2.3,Win32,60,,,,,,,,,,,,,,,,,left,0.407455,,,,,,,,0,6,6,1,1,,
,,,,,,,stim2/pa-25.wav,5e88a67c651ae60009602e69,2021-01-21_11h13.54.507,Hungarian_step4,2020.2.3,Win32,60,,,,,,,,,,,,,,,,,right,0.35279,,,,,,,,0,7,7,14,1,,
,,,,,,,stim2/pa+35.wav,5e88a67c651ae60009602e69,2021-01-21_11h13.54.507,Hungarian_step4,2020.2.3,Win32,60,,,,,,,,,,,,,,,,,left,0.350675,,,,,,,,0,8,8,6,1,,
,,,,,,,stim2/pa+15.wav,5e88a67c651ae60009602e69,2021-01-21_11h13.54.507,Hungarian_step4,2020.2.3,Win32,60,,,,,,,,,,,,,,,,,left,0.40971,,,,,,,,0,9,9,2,1,,
,,,,,,,stim2/pa+20.wav,5e88a67c651ae60009602e69,2021-01-21_11h13.54.507,Hungarian_step4,2020.2.3,Win32,60,,,,,,,,,,,,,,,,,left,0.37048,,,,,,,,0,10,10,3,1,,
,,,,,,,stim2/pa+05.wav,5e88a67c651ae60009602e69,2021-01-21_11h13.54.507,Hungarian_step4,2020.2.3,Win32,60,,,,,,,,,,,,,,,,,left,0.35098,,,,,,,,0,11,11,0,1,,
,,,,,,,stim2/pa+50.wav,5e88a67c651ae60009602e69,2021-01-21_11h13.54.507,Hungarian_step4,2020.2.3,Win32,60,,,,,,,,,,,,,,,,,left,0.40876,,,,,,,,0,12,12,9,1,,
,,,,,,,stim2/pa-20.wav,5e88a67c651ae60009602e69,2021-01-21_11h13.54.507,Hungarian_step4,2020.2.3,Win32,60,,,,,,,,,,,,,,,,,right,0.401175,,,,,,,,0,13,13,13,1,,
,,,,,,,stim2/pa+45.wav,5e88a67c651ae60009602e69,2021-01-21_11h13.54.507,Hungarian_step4,2020.2.3,Win32,60,,,,,,,,,,,,,,,,,left,0.40101,,,,,,,,0,14,14,8,1,,
,,,,,,,stim2/pa-35.wav,5e88a67c651ae60009602e69,2021-01-21_11h13.54.507,Hungarian_step4,2020.2.3,Win32,60,,,,,,,,,,,,,,,,,right,0.33386,,,,,,,,0,15,15,16,1,,
,,,,,,,stim2/pa-10.wav,5e88a67c651ae60009602e69,2021-01-21_11h13.54.507,Hungarian_step4,2020.2.3,Win32,60,,,,,,,,,,,,,,,,,left,0.958595,,,,,,,,0,16,16,11,1,,
,,,,,,,stim2/pa+20.wav,5e88a67c651ae60009602e69,2021-01-21_11h13.54.507,Hungarian_step4,2020.2.3,Win32,60,,,,,,,,,,,,,,,,,left,0.352835,,,,,,,,1,0,17,3,1,,
,,,,,,,stim2/pa+10.wav,5e88a67c651ae60009602e69,2021-01-21_11h13.54.507,Hungarian_step4,2020.2.3,Win32,60,,,,,,,,,,,,,,,,,left,0.37645,,,,,,,,1,1,18,1,1,,
,,,,,,,stim2/pa+25.wav,5e88a67c651ae60009602e69,2021-01-21_11h13.54.507,Hungarian_step4,2020.2.3,Win32,60,,,,,,,,,,,,,,,,,left,0.31721,,,,,,,,1,2,19,4,1,,
,,,,,,,stim2/pa-30.wav,5e88a67c651ae60009602e69,2021-01-21_11h13.54.507,Hungarian_step4,2020.2.3,Win32,60,,,,,,,,,,,,,,,,,right,0.37025,,,,,,,,1,3,20,15,1,,
,,,,,,,stim2/pa+45.wav,5e88a67c651ae60009602e69,2021-01-21_11h13.54.507,Hungarian_step4,2020.2.3,Win32,60,,,,,,,,,,,,,,,,,left,0.320815,,,,,,,,1,4,21,8,1,,
,,,,,,,stim2/pa+05.wav,5e88a67c651ae60009602e69,2021-01-21_11h13.54.507,Hungarian_step4,2020.2.3,Win32,60,,,,,,,,,,,,,,,,,left,0.355795,,,,,,,,1,5,22,0,1,,
,,,,,,,stim2/pa+30.wav,5e88a67c651ae60009602e69,2021-01-21_11h13.54.507,Hungarian_step4,2020.2.3,Win32,60,,,,,,,,,,,,,,,,,left,0.4379,,,,,,,,1,6,23,5,1,,
,,,,,,,stim2/pa-20.wav,5e88a67c651ae60009602e69,2021-01-21_11h13.54.507,Hungarian_step4,2020.2.3,Win32,60,,,,,,,,,,,,,,,,,right,0.287105,,,,,,,,1,7,24,13,1,,
,,,,,,,stim2/pa-10.wav,5e88a67c651ae60009602e69,2021-01-21_11h13.54.507,Hungarian_step4,2020.2.3,Win32,60,,,,,,,,,,,,,,,,,left,0.325045,,,,,,,,1,8,25,11,1,,
,,,,,,,stim2/pa-15.wav,5e88a67c651ae60009602e69,2021-01-21_11h13.54.507,Hungarian_step4,2020.2.3,Win32,60,,,,,,,,,,,,,,,,,left,0.35057,,,,,,,,1,9,26,12,1,,
,,,,,,,stim2/pa+50.wav,5e88a67c651ae60009602e69,2021-01-21_11h13.54.507,Hungarian_step4,2020.2.3,Win32,60,,,,,,,,,,,,,,,,,left,0.38375,,,,,,,,1,10,27,9,1,,
,,,,,,,stim2/pa+15.wav,5e88a67c651ae60009602e69,2021-01-21_11h13.54.507,Hungarian_step4,2020.2.3,Win32,60,,,,,,,,,,,,,,,,,left,0.473165,,,,,,,,1,11,28,2,1,,
,,,,,,,stim2/pa+35.wav,5e88a67c651ae60009602e69,2021-01-21_11h13.54.507,Hungarian_step4,2020.2.3,Win32,60,,,,,,,,,,,,,,,,,left,0.41681,,,,,,,,1,12,29,6,1,,
,,,,,,,stim2/pa+40.wav,5e88a67c651ae60009602e69,2021-01-21_11h13.54.507,Hungarian_step4,2020.2.3,Win32,60,,,,,,,,,,,,,,,,,left,0.283875,,,,,,,,1,13,30,7,1,,
,,,,,,,stim2/pa-05.wav,5e88a67c651ae60009602e69,2021-01-21_11h13.54.507,Hungarian_step4,2020.2.3,Win32,60,,,,,,,,,,,,,,,,,right,0.441105,,,,,,,,1,14,31,10,1,,
,,,,,,,stim2/pa-25.wav,5e88a67c651ae60009602e69,2021-01-21_11h13.54.507,Hungarian_step4,2020.2.3,Win32,60,,,,,,,,,,,,,,,,,right,0.36989,,,,,,,,1,15,32,14,1,,
,,,,,,,stim2/pa-35.wav,5e88a67c651ae60009602e69,2021-01-21_11h13.54.507,Hungarian_step4,2020.2.3,Win32,60,,,,,,,,,,,,,,,,,right,0.40055,,,,,,,,1,16,33,16,1,,
,,,,,,,,5e88a67c651ae60009602e69,2021-01-21_11h13.54.507,Hungarian_step4,2020.2.3,Win32,60,,,,,,,,,,,,,,,,,,,,,,,,,,,,,,,space,2.25193
