resp.keys,resp.rt,trials.thisRepN,trials.thisTrialN,trials.thisN,trials.thisIndex,trials.ran,stimuli,participant,date,expName,psychopyVersion,OS,frameRate,gotResponse.keys,gotResponse.rt,resp_2.keys,resp_2.rt,trials_2.thisRepN,trials_2.thisTrialN,trials_2.thisN,trials_2.thisIndex,trials_2.ran,key_resp_3.keys,key_resp_3.rt,trials_4.thisRepN,trials_4.thisTrialN,trials_4.thisN,trials_4.thisIndex,trials_4.ran,resp_3.keys,resp_3.rt,trials_3.thisRepN,trials_3.thisTrialN,trials_3.thisN,trials_3.thisIndex,trials_3.ran,key_resp_2.keys,key_resp_2.rt,trials_5.thisRepN,trials_5.thisTrialN,trials_5.thisN,trials_5.thisIndex,trials_5.ran,key_resp.keys,key_resp.rt
left,1.780945,0,0,0,0,1,stim/VC_01.wav,5e88a67c651ae60009602e69,2021-01-20_17h00.29.295,Spanish_step2,2020.2.3,Win32,60,,,,,,,,,,,,,,,,,,,,,,,,,,,,,,,,
right,0.72599,0,1,1,1,1,stim/VC_11.wav,5e88a67c651ae60009602e69,2021-01-20_17h00.29.295,Spanish_step2,2020.2.3,Win32,60,,,,,,,,,,,,,,,,,,,,,,,,,,,,,,,,
,,,,,,,stim/VC_08.wav,5e88a67c651ae60009602e69,2021-01-20_17h00.29.295,Spanish_step2,2020.2.3,Win32,60,space,0.78714,right,0.60535,0,0,0,7,1,,,,,,,,,,,,,,,,,,,,,,,
,,,,,,,stim/VC_10.wav,5e88a67c651ae60009602e69,2021-01-20_17h00.29.295,Spanish_step2,2020.2.3,Win32,60,,,right,0.47426,0,1,1,9,1,,,,,,,,,,,,,,,,,,,,,,,
,,,,,,,stim/VC_11.wav,5e88a67c651ae60009602e69,2021-01-20_17h00.29.295,Spanish_step2,2020.2.3,Win32,60,,,right,0.383745,0,2,2,10,1,,,,,,,,,,,,,,,,,,,,,,,
,,,,,,,stim/VC_06.wav,5e88a67c651ae60009602e69,2021-01-20_17h00.29.295,Spanish_step2,2020.2.3,Win32,60,,,right,0.47633,0,3,3,5,1,,,,,,,,,,,,,,,,,,,,,,,
,,,,,,,stim/VC_05.wav,5e88a67c651ae60009602e69,2021-01-20_17h00.29.295,Spanish_step2,2020.2.3,Win32,60,,,right,0.42412,0,4,4,4,1,,,,,,,,,,,,,,,,,,,,,,,
,,,,,,,stim/VC_03.wav,5e88a67c651ae60009602e69,2021-01-20_17h00.29.295,Spanish_step2,2020.2.3,Win32,60,,,left,0.484415,0,5,5,2,1,,,,,,,,,,,,,,,,,,,,,,,
,,,,,,,stim/VC_02.wav,5e88a67c651ae60009602e69,2021-01-20_17h00.29.295,Spanish_step2,2020.2.3,Win32,60,,,left,0.404625,0,6,6,1,1,,,,,,,,,,,,,,,,,,,,,,,
,,,,,,,stim/VC_01.wav,5e88a67c651ae60009602e69,2021-01-20_17h00.29.295,Spanish_step2,2020.2.3,Win32,60,,,left,0.466805,0,7,7,0,1,,,,,,,,,,,,,,,,,,,,,,,
,,,,,,,stim/VC_09.wav,5e88a67c651ae60009602e69,2021-01-20_17h00.29.295,Spanish_step2,2020.2.3,Win32,60,,,right,0.38239,0,8,8,8,1,,,,,,,,,,,,,,,,,,,,,,,
,,,,,,,stim/VC_07.wav,5e88a67c651ae60009602e69,2021-01-20_17h00.29.295,Spanish_step2,2020.2.3,Win32,60,,,right,0.39329,0,9,9,6,1,,,,,,,,,,,,,,,,,,,,,,,
,,,,,,,stim/VC_04.wav,5e88a67c651ae60009602e69,2021-01-20_17h00.29.295,Spanish_step2,2020.2.3,Win32,60,,,right,0.496815,0,10,10,3,1,,,,,,,,,,,,,,,,,,,,,,,
,,,,,,,stim/VC_02.wav,5e88a67c651ae60009602e69,2021-01-20_17h00.29.295,Spanish_step2,2020.2.3,Win32,60,,,left,0.407205,1,0,11,1,1,,,,,,,,,,,,,,,,,,,,,,,
,,,,,,,stim/VC_01.wav,5e88a67c651ae60009602e69,2021-01-20_17h00.29.295,Spanish_step2,2020.2.3,Win32,60,,,left,0.53322,1,1,12,0,1,,,,,,,,,,,,,,,,,,,,,,,
,,,,,,,stim/VC_05.wav,5e88a67c651ae60009602e69,2021-01-20_17h00.29.295,Spanish_step2,2020.2.3,Win32,60,,,right,0.37617,1,2,13,4,1,,,,,,,,,,,,,,,,,,,,,,,
,,,,,,,stim/VC_11.wav,5e88a67c651ae60009602e69,2021-01-20_17h00.29.295,Spanish_step2,2020.2.3,Win32,60,,,right,0.34412,1,3,14,10,1,,,,,,,,,,,,,,,,,,,,,,,
,,,,,,,stim/VC_03.wav,5e88a67c651ae60009602e69,2021-01-20_17h00.29.295,Spanish_step2,2020.2.3,Win32,60,,,left,0.465365,1,4,15,2,1,,,,,,,,,,,,,,,,,,,,,,,
,,,,,,,stim/VC_07.wav,5e88a67c651ae60009602e69,2021-01-20_17h00.29.295,Spanish_step2,2020.2.3,Win32,60,,,right,0.333045,1,5,16,6,1,,,,,,,,,,,,,,,,,,,,,,,
,,,,,,,stim/VC_06.wav,5e88a67c651ae60009602e69,2021-01-20_17h00.29.295,Spanish_step2,2020.2.3,Win32,60,,,right,0.38425,1,6,17,5,1,,,,,,,,,,,,,,,,,,,,,,,
,,,,,,,stim/VC_04.wav,5e88a67c651ae60009602e69,2021-01-20_17h00.29.295,Spanish_step2,2020.2.3,Win32,60,,,right,0.361105,1,7,18,3,1,,,,,,,,,,,,,,,,,,,,,,,
,,,,,,,stim/VC_08.wav,5e88a67c651ae60009602e69,2021-01-20_17h00.29.295,Spanish_step2,2020.2.3,Win32,60,,,right,0.383395,1,8,19,7,1,,,,,,,,,,,,,,,,,,,,,,,
,,,,,,,stim/VC_09.wav,5e88a67c651ae60009602e69,2021-01-20_17h00.29.295,Spanish_step2,2020.2.3,Win32,60,,,right,0.444335,1,9,20,8,1,,,,,,,,,,,,,,,,,,,,,,,
,,,,,,,stim/VC_10.wav,5e88a67c651ae60009602e69,2021-01-20_17h00.29.295,Spanish_step2,2020.2.3,Win32,60,,,right,0.35171,1,10,21,9,1,,,,,,,,,,,,,,,,,,,,,,,
,,,,,,,stim/VC_06.wav,5e88a67c651ae60009602e69,2021-01-20_17h00.29.295,Spanish_step2,2020.2.3,Win32,60,,,right,0.33675,2,0,22,5,1,,,,,,,,,,,,,,,,,,,,,,,
,,,,,,,stim/VC_11.wav,5e88a67c651ae60009602e69,2021-01-20_17h00.29.295,Spanish_step2,2020.2.3,Win32,60,,,right,0.251145,2,1,23,10,1,,,,,,,,,,,,,,,,,,,,,,,
,,,,,,,stim/VC_05.wav,5e88a67c651ae60009602e69,2021-01-20_17h00.29.295,Spanish_step2,2020.2.3,Win32,60,,,right,0.418295,2,2,24,4,1,,,,,,,,,,,,,,,,,,,,,,,
,,,,,,,stim/VC_04.wav,5e88a67c651ae60009602e69,2021-01-20_17h00.29.295,Spanish_step2,2020.2.3,Win32,60,,,right,0.7289,2,3,25,3,1,,,,,,,,,,,,,,,,,,,,,,,
,,,,,,,stim/VC_03.wav,5e88a67c651ae60009602e69,2021-01-20_17h00.29.295,Spanish_step2,2020.2.3,Win32,60,,,left,0.48393,2,4,26,2,1,,,,,,,,,,,,,,,,,,,,,,,
,,,,,,,stim/VC_02.wav,5e88a67c651ae60009602e69,2021-01-20_17h00.29.295,Spanish_step2,2020.2.3,Win32,60,,,left,0.35789,2,5,27,1,1,,,,,,,,,,,,,,,,,,,,,,,
,,,,,,,stim/VC_07.wav,5e88a67c651ae60009602e69,2021-01-20_17h00.29.295,Spanish_step2,2020.2.3,Win32,60,,,right,0.484605,2,6,28,6,1,,,,,,,,,,,,,,,,,,,,,,,
,,,,,,,stim/VC_10.wav,5e88a67c651ae60009602e69,2021-01-20_17h00.29.295,Spanish_step2,2020.2.3,Win32,60,,,right,0.452065,2,7,29,9,1,,,,,,,,,,,,,,,,,,,,,,,
,,,,,,,stim/VC_01.wav,5e88a67c651ae60009602e69,2021-01-20_17h00.29.295,Spanish_step2,2020.2.3,Win32,60,,,left,0.416605,2,8,30,0,1,,,,,,,,,,,,,,,,,,,,,,,
,,,,,,,stim/VC_08.wav,5e88a67c651ae60009602e69,2021-01-20_17h00.29.295,Spanish_step2,2020.2.3,Win32,60,,,right,0.384555,2,9,31,7,1,,,,,,,,,,,,,,,,,,,,,,,
,,,,,,,stim/VC_09.wav,5e88a67c651ae60009602e69,2021-01-20_17h00.29.295,Spanish_step2,2020.2.3,Win32,60,,,right,0.372185,2,10,32,8,1,,,,,,,,,,,,,,,,,,,,,,,
,,,,,,,stim/VC_02.wav,5e88a67c651ae60009602e69,2021-01-20_17h00.29.295,Spanish_step2,2020.2.3,Win32,60,,,left,0.853515,,,,,,7,2.175335,0,0,0,1,1,,,,,,,,,,,,,,,,
,,,,,,,stim/VC_04.wav,5e88a67c651ae60009602e69,2021-01-20_17h00.29.295,Spanish_step2,2020.2.3,Win32,60,,,right,0.53694,,,,,,,,0,1,1,3,1,,,,,,,,,,,,,,,,
,,,,,,,stim/VC_07.wav,5e88a67c651ae60009602e69,2021-01-20_17h00.29.295,Spanish_step2,2020.2.3,Win32,60,,,right,0.501465,,,,,,,,0,2,2,6,1,,,,,,,,,,,,,,,,
,,,,,,,stim/VC_06.wav,5e88a67c651ae60009602e69,2021-01-20_17h00.29.295,Spanish_step2,2020.2.3,Win32,60,,,right,0.35789,,,,,,,,0,3,3,5,1,,,,,,,,,,,,,,,,
,,,,,,,stim/VC_10.wav,5e88a67c651ae60009602e69,2021-01-20_17h00.29.295,Spanish_step2,2020.2.3,Win32,60,,,right,0.383745,,,,,,,,0,4,4,9,1,,,,,,,,,,,,,,,,
,,,,,,,stim/VC_03.wav,5e88a67c651ae60009602e69,2021-01-20_17h00.29.295,Spanish_step2,2020.2.3,Win32,60,,,right,0.65951,,,,,,,,0,5,5,2,1,,,,,,,,,,,,,,,,
,,,,,,,stim/VC_09.wav,5e88a67c651ae60009602e69,2021-01-20_17h00.29.295,Spanish_step2,2020.2.3,Win32,60,,,right,0.517345,,,,,,,,0,6,6,8,1,,,,,,,,,,,,,,,,
,,,,,,,stim/VC_08.wav,5e88a67c651ae60009602e69,2021-01-20_17h00.29.295,Spanish_step2,2020.2.3,Win32,60,,,right,0.43821,,,,,,,,0,7,7,7,1,,,,,,,,,,,,,,,,
,,,,,,,stim/VC_11.wav,5e88a67c651ae60009602e69,2021-01-20_17h00.29.295,Spanish_step2,2020.2.3,Win32,60,,,right,0.387,,,,,,,,0,8,8,10,1,,,,,,,,,,,,,,,,
,,,,,,,stim/VC_01.wav,5e88a67c651ae60009602e69,2021-01-20_17h00.29.295,Spanish_step2,2020.2.3,Win32,60,,,left,0.38345,,,,,,,,0,9,9,0,1,,,,,,,,,,,,,,,,
,,,,,,,stim/VC_05.wav,5e88a67c651ae60009602e69,2021-01-20_17h00.29.295,Spanish_step2,2020.2.3,Win32,60,,,right,0.39184,,,,,,,,0,10,10,4,1,,,,,,,,,,,,,,,,
,,,,,,,stim/VC_10.wav,5e88a67c651ae60009602e69,2021-01-20_17h00.29.295,Spanish_step2,2020.2.3,Win32,60,,,right,0.39367,,,,,,,,1,0,11,9,1,,,,,,,,,,,,,,,,
,,,,,,,stim/VC_01.wav,5e88a67c651ae60009602e69,2021-01-20_17h00.29.295,Spanish_step2,2020.2.3,Win32,60,,,left,0.452135,,,,,,,,1,1,12,0,1,,,,,,,,,,,,,,,,
,,,,,,,stim/VC_09.wav,5e88a67c651ae60009602e69,2021-01-20_17h00.29.295,Spanish_step2,2020.2.3,Win32,60,,,right,0.35245,,,,,,,,1,2,13,8,1,,,,,,,,,,,,,,,,
,,,,,,,stim/VC_08.wav,5e88a67c651ae60009602e69,2021-01-20_17h00.29.295,Spanish_step2,2020.2.3,Win32,60,,,right,0.3521,,,,,,,,1,3,14,7,1,,,,,,,,,,,,,,,,
,,,,,,,stim/VC_02.wav,5e88a67c651ae60009602e69,2021-01-20_17h00.29.295,Spanish_step2,2020.2.3,Win32,60,,,left,0.433155,,,,,,,,1,4,15,1,1,,,,,,,,,,,,,,,,
,,,,,,,stim/VC_11.wav,5e88a67c651ae60009602e69,2021-01-20_17h00.29.295,Spanish_step2,2020.2.3,Win32,60,,,right,0.37581,,,,,,,,1,5,16,10,1,,,,,,,,,,,,,,,,
,,,,,,,stim/VC_07.wav,5e88a67c651ae60009602e69,2021-01-20_17h00.29.295,Spanish_step2,2020.2.3,Win32,60,,,right,0.45008,,,,,,,,1,6,17,6,1,,,,,,,,,,,,,,,,
,,,,,,,stim/VC_06.wav,5e88a67c651ae60009602e69,2021-01-20_17h00.29.295,Spanish_step2,2020.2.3,Win32,60,,,right,0.42799,,,,,,,,1,7,18,5,1,,,,,,,,,,,,,,,,
,,,,,,,stim/VC_04.wav,5e88a67c651ae60009602e69,2021-01-20_17h00.29.295,Spanish_step2,2020.2.3,Win32,60,,,right,0.441285,,,,,,,,1,8,19,3,1,,,,,,,,,,,,,,,,
,,,,,,,stim/VC_05.wav,5e88a67c651ae60009602e69,2021-01-20_17h00.29.295,Spanish_step2,2020.2.3,Win32,60,,,right,0.576485,,,,,,,,1,9,20,4,1,,,,,,,,,,,,,,,,
,,,,,,,stim/VC_03.wav,5e88a67c651ae60009602e69,2021-01-20_17h00.29.295,Spanish_step2,2020.2.3,Win32,60,,,left,0.407405,,,,,,,,1,10,21,2,1,,,,,,,,,,,,,,,,
,,,,,,,stim2/pa+30.wav,5e88a67c651ae60009602e69,2021-01-20_17h00.29.295,Spanish_step2,2020.2.3,Win32,60,,,,,,,,,,,,,,,,,right,3.42337,0,0,0,5,1,,,,,,,,,
,,,,,,,stim2/pa-05.wav,5e88a67c651ae60009602e69,2021-01-20_17h00.29.295,Spanish_step2,2020.2.3,Win32,60,,,,,,,,,,,,,,,,,right,0.4087,0,1,1,10,1,,,,,,,,,
,,,,,,,stim2/pa-15.wav,5e88a67c651ae60009602e69,2021-01-20_17h00.29.295,Spanish_step2,2020.2.3,Win32,60,,,,,,,,,,,,,,,,,right,0.535975,0,2,2,12,1,,,,,,,,,
,,,,,,,stim2/pa+25.wav,5e88a67c651ae60009602e69,2021-01-20_17h00.29.295,Spanish_step2,2020.2.3,Win32,60,,,,,,,,,,,,,,,,,left,0.515185,0,3,3,4,1,,,,,,,,,
,,,,,,,stim2/pa-25.wav,5e88a67c651ae60009602e69,2021-01-20_17h00.29.295,Spanish_step2,2020.2.3,Win32,60,,,,,,,,,,,,,,,,,right,0.43198,0,4,4,14,1,,,,,,,,,
,,,,,,,stim2/pa+05.wav,5e88a67c651ae60009602e69,2021-01-20_17h00.29.295,Spanish_step2,2020.2.3,Win32,60,,,,,,,,,,,,,,,,,left,0.41784,0,5,5,0,1,,,,,,,,,
,,,,,,,stim2/pa-20.wav,5e88a67c651ae60009602e69,2021-01-20_17h00.29.295,Spanish_step2,2020.2.3,Win32,60,,,,,,,,,,,,,,,,,right,0.41677,0,6,6,13,1,,,,,,,,,
,,,,,,,stim2/pa+20.wav,5e88a67c651ae60009602e69,2021-01-20_17h00.29.295,Spanish_step2,2020.2.3,Win32,60,,,,,,,,,,,,,,,,,left,0.35922,0,7,7,3,1,,,,,,,,,
,,,,,,,stim2/pa+45.wav,5e88a67c651ae60009602e69,2021-01-20_17h00.29.295,Spanish_step2,2020.2.3,Win32,60,,,,,,,,,,,,,,,,,left,0.44032,0,8,8,8,1,,,,,,,,,
,,,,,,,stim2/pa+35.wav,5e88a67c651ae60009602e69,2021-01-20_17h00.29.295,Spanish_step2,2020.2.3,Win32,60,,,,,,,,,,,,,,,,,left,0.43526,0,9,9,6,1,,,,,,,,,
,,,,,,,stim2/pa-10.wav,5e88a67c651ae60009602e69,2021-01-20_17h00.29.295,Spanish_step2,2020.2.3,Win32,60,,,,,,,,,,,,,,,,,right,0.37396,0,10,10,11,1,,,,,,,,,
,,,,,,,stim2/pa-30.wav,5e88a67c651ae60009602e69,2021-01-20_17h00.29.295,Spanish_step2,2020.2.3,Win32,60,,,,,,,,,,,,,,,,,right,0.351045,0,11,11,15,1,,,,,,,,,
,,,,,,,stim2/pa+40.wav,5e88a67c651ae60009602e69,2021-01-20_17h00.29.295,Spanish_step2,2020.2.3,Win32,60,,,,,,,,,,,,,,,,,left,0.31931,0,12,12,7,1,,,,,,,,,
,,,,,,,stim2/pa+10.wav,5e88a67c651ae60009602e69,2021-01-20_17h00.29.295,Spanish_step2,2020.2.3,Win32,60,,,,,,,,,,,,,,,,,left,0.35066,0,13,13,1,1,,,,,,,,,
,,,,,,,stim2/pa-35.wav,5e88a67c651ae60009602e69,2021-01-20_17h00.29.295,Spanish_step2,2020.2.3,Win32,60,,,,,,,,,,,,,,,,,right,0.431805,0,14,14,16,1,,,,,,,,,
,,,,,,,stim2/pa+15.wav,5e88a67c651ae60009602e69,2021-01-20_17h00.29.295,Spanish_step2,2020.2.3,Win32,60,,,,,,,,,,,,,,,,,left,0.282605,0,15,15,2,1,,,,,,,,,
,,,,,,,stim2/pa+50.wav,5e88a67c651ae60009602e69,2021-01-20_17h00.29.295,Spanish_step2,2020.2.3,Win32,60,,,,,,,,,,,,,,,,,left,0.42155,0,16,16,9,1,,,,,,,,,
,,,,,,,stim2/pa-30.wav,5e88a67c651ae60009602e69,2021-01-20_17h00.29.295,Spanish_step2,2020.2.3,Win32,60,,,,,,,,,,,,,,,,,right,0.31609,1,0,17,15,1,,,,,,,,,
,,,,,,,stim2/pa+35.wav,5e88a67c651ae60009602e69,2021-01-20_17h00.29.295,Spanish_step2,2020.2.3,Win32,60,,,,,,,,,,,,,,,,,left,0.391595,1,1,18,6,1,,,,,,,,,
,,,,,,,stim2/pa+15.wav,5e88a67c651ae60009602e69,2021-01-20_17h00.29.295,Spanish_step2,2020.2.3,Win32,60,,,,,,,,,,,,,,,,,left,0.489765,1,2,19,2,1,,,,,,,,,
,,,,,,,stim2/pa-20.wav,5e88a67c651ae60009602e69,2021-01-20_17h00.29.295,Spanish_step2,2020.2.3,Win32,60,,,,,,,,,,,,,,,,,right,0.31727,1,3,20,13,1,,,,,,,,,
,,,,,,,stim2/pa+45.wav,5e88a67c651ae60009602e69,2021-01-20_17h00.29.295,Spanish_step2,2020.2.3,Win32,60,,,,,,,,,,,,,,,,,left,0.29122,1,4,21,8,1,,,,,,,,,
,,,,,,,stim2/pa-15.wav,5e88a67c651ae60009602e69,2021-01-20_17h00.29.295,Spanish_step2,2020.2.3,Win32,60,,,,,,,,,,,,,,,,,right,0.568825,1,5,22,12,1,,,,,,,,,
,,,,,,,stim2/pa-25.wav,5e88a67c651ae60009602e69,2021-01-20_17h00.29.295,Spanish_step2,2020.2.3,Win32,60,,,,,,,,,,,,,,,,,right,0.421835,1,6,23,14,1,,,,,,,,,
,,,,,,,stim2/pa+25.wav,5e88a67c651ae60009602e69,2021-01-20_17h00.29.295,Spanish_step2,2020.2.3,Win32,60,,,,,,,,,,,,,,,,,left,0.28467,1,7,24,4,1,,,,,,,,,
,,,,,,,stim2/pa-10.wav,5e88a67c651ae60009602e69,2021-01-20_17h00.29.295,Spanish_step2,2020.2.3,Win32,60,,,,,,,,,,,,,,,,,right,0.573475,1,8,25,11,1,,,,,,,,,
,,,,,,,stim2/pa+05.wav,5e88a67c651ae60009602e69,2021-01-20_17h00.29.295,Spanish_step2,2020.2.3,Win32,60,,,,,,,,,,,,,,,,,left,0.37248,1,9,26,0,1,,,,,,,,,
,,,,,,,stim2/pa+20.wav,5e88a67c651ae60009602e69,2021-01-20_17h00.29.295,Spanish_step2,2020.2.3,Win32,60,,,,,,,,,,,,,,,,,left,0.371185,1,10,27,3,1,,,,,,,,,
,,,,,,,stim2/pa+40.wav,5e88a67c651ae60009602e69,2021-01-20_17h00.29.295,Spanish_step2,2020.2.3,Win32,60,,,,,,,,,,,,,,,,,left,0.504695,1,11,28,7,1,,,,,,,,,
,,,,,,,stim2/pa-35.wav,5e88a67c651ae60009602e69,2021-01-20_17h00.29.295,Spanish_step2,2020.2.3,Win32,60,,,,,,,,,,,,,,,,,right,0.31879,1,12,29,16,1,,,,,,,,,
,,,,,,,stim2/pa+10.wav,5e88a67c651ae60009602e69,2021-01-20_17h00.29.295,Spanish_step2,2020.2.3,Win32,60,,,,,,,,,,,,,,,,,left,0.341065,1,13,30,1,1,,,,,,,,,
,,,,,,,stim2/pa-05.wav,5e88a67c651ae60009602e69,2021-01-20_17h00.29.295,Spanish_step2,2020.2.3,Win32,60,,,,,,,,,,,,,,,,,left,0.37383,1,14,31,10,1,,,,,,,,,
,,,,,,,stim2/pa+30.wav,5e88a67c651ae60009602e69,2021-01-20_17h00.29.295,Spanish_step2,2020.2.3,Win32,60,,,,,,,,,,,,,,,,,left,0.424125,1,15,32,5,1,,,,,,,,,
,,,,,,,stim2/pa+50.wav,5e88a67c651ae60009602e69,2021-01-20_17h00.29.295,Spanish_step2,2020.2.3,Win32,60,,,,,,,,,,,,,,,,,left,0.4268,1,16,33,9,1,,,,,,,,,
,,,,,,,stim2/pa+10.wav,5e88a67c651ae60009602e69,2021-01-20_17h00.29.295,Spanish_step2,2020.2.3,Win32,60,,,,,,,,,,,,,,,,,left,0.351515,2,0,34,1,1,,,,,,,,,
,,,,,,,stim2/pa+40.wav,5e88a67c651ae60009602e69,2021-01-20_17h00.29.295,Spanish_step2,2020.2.3,Win32,60,,,,,,,,,,,,,,,,,left,0.40173,2,1,35,7,1,,,,,,,,,
,,,,,,,stim2/pa-15.wav,5e88a67c651ae60009602e69,2021-01-20_17h00.29.295,Spanish_step2,2020.2.3,Win32,60,,,,,,,,,,,,,,,,,right,0.35993,2,2,36,12,1,,,,,,,,,
,,,,,,,stim2/pa+30.wav,5e88a67c651ae60009602e69,2021-01-20_17h00.29.295,Spanish_step2,2020.2.3,Win32,60,,,,,,,,,,,,,,,,,left,0.391045,2,3,37,5,1,,,,,,,,,
,,,,,,,stim2/pa+15.wav,5e88a67c651ae60009602e69,2021-01-20_17h00.29.295,Spanish_step2,2020.2.3,Win32,60,,,,,,,,,,,,,,,,,left,0.33727,2,4,38,2,1,,,,,,,,,
,,,,,,,stim2/pa-35.wav,5e88a67c651ae60009602e69,2021-01-20_17h00.29.295,Spanish_step2,2020.2.3,Win32,60,,,,,,,,,,,,,,,,,right,0.380705,2,5,39,16,1,,,,,,,,,
,,,,,,,stim2/pa-05.wav,5e88a67c651ae60009602e69,2021-01-20_17h00.29.295,Spanish_step2,2020.2.3,Win32,60,,,,,,,,,,,,,,,,,left,0.421545,2,6,40,10,1,,,,,,,,,
,,,,,,,stim2/pa+20.wav,5e88a67c651ae60009602e69,2021-01-20_17h00.29.295,Spanish_step2,2020.2.3,Win32,60,,,,,,,,,,,,,,,,,right,0.27302,2,7,41,3,1,,,,,,,,,
,,,,,,,stim2/pa-10.wav,5e88a67c651ae60009602e69,2021-01-20_17h00.29.295,Spanish_step2,2020.2.3,Win32,60,,,,,,,,,,,,,,,,,right,0.41781,2,8,42,11,1,,,,,,,,,
,,,,,,,stim2/pa-20.wav,5e88a67c651ae60009602e69,2021-01-20_17h00.29.295,Spanish_step2,2020.2.3,Win32,60,,,,,,,,,,,,,,,,,right,0.375105,2,9,43,13,1,,,,,,,,,
,,,,,,,stim2/pa+05.wav,5e88a67c651ae60009602e69,2021-01-20_17h00.29.295,Spanish_step2,2020.2.3,Win32,60,,,,,,,,,,,,,,,,,left,0.295815,2,10,44,0,1,,,,,,,,,
,,,,,,,stim2/pa-25.wav,5e88a67c651ae60009602e69,2021-01-20_17h00.29.295,Spanish_step2,2020.2.3,Win32,60,,,,,,,,,,,,,,,,,right,0.423065,2,11,45,14,1,,,,,,,,,
,,,,,,,stim2/pa+25.wav,5e88a67c651ae60009602e69,2021-01-20_17h00.29.295,Spanish_step2,2020.2.3,Win32,60,,,,,,,,,,,,,,,,,left,0.566835,2,12,46,4,1,,,,,,,,,
,,,,,,,stim2/pa+45.wav,5e88a67c651ae60009602e69,2021-01-20_17h00.29.295,Spanish_step2,2020.2.3,Win32,60,,,,,,,,,,,,,,,,,left,0.608585,2,13,47,8,1,,,,,,,,,
,,,,,,,stim2/pa+50.wav,5e88a67c651ae60009602e69,2021-01-20_17h00.29.295,Spanish_step2,2020.2.3,Win32,60,,,,,,,,,,,,,,,,,left,1.71603,2,14,48,9,1,,,,,,,,,
,,,,,,,stim2/pa-30.wav,5e88a67c651ae60009602e69,2021-01-20_17h00.29.295,Spanish_step2,2020.2.3,Win32,60,,,,,,,,,,,,,,,,,right,0.570415,2,15,49,15,1,,,,,,,,,
,,,,,,,stim2/pa+35.wav,5e88a67c651ae60009602e69,2021-01-20_17h00.29.295,Spanish_step2,2020.2.3,Win32,60,,,,,,,,,,,,,,,,,left,0.38832,2,16,50,6,1,,,,,,,,,
,,,,,,,stim2/pa-25.wav,5e88a67c651ae60009602e69,2021-01-20_17h00.29.295,Spanish_step2,2020.2.3,Win32,60,,,,,,,,,,,,,,,,,right,0.552695,,,,,,z,1.32748,0,0,0,14,1,,
,,,,,,,stim2/pa+10.wav,5e88a67c651ae60009602e69,2021-01-20_17h00.29.295,Spanish_step2,2020.2.3,Win32,60,,,,,,,,,,,,,,,,,left,0.31107,,,,,,,,0,1,1,1,1,,
,,,,,,,stim2/pa-35.wav,5e88a67c651ae60009602e69,2021-01-20_17h00.29.295,Spanish_step2,2020.2.3,Win32,60,,,,,,,,,,,,,,,,,left,0.3903,,,,,,,,0,2,2,16,1,,
,,,,,,,stim2/pa+05.wav,5e88a67c651ae60009602e69,2021-01-20_17h00.29.295,Spanish_step2,2020.2.3,Win32,60,,,,,,,,,,,,,,,,,left,0.36298,,,,,,,,0,3,3,0,1,,
,,,,,,,stim2/pa+25.wav,5e88a67c651ae60009602e69,2021-01-20_17h00.29.295,Spanish_step2,2020.2.3,Win32,60,,,,,,,,,,,,,,,,,left,0.351855,,,,,,,,0,4,4,4,1,,
,,,,,,,stim2/pa-05.wav,5e88a67c651ae60009602e69,2021-01-20_17h00.29.295,Spanish_step2,2020.2.3,Win32,60,,,,,,,,,,,,,,,,,right,0.36759,,,,,,,,0,5,5,10,1,,
,,,,,,,stim2/pa-15.wav,5e88a67c651ae60009602e69,2021-01-20_17h00.29.295,Spanish_step2,2020.2.3,Win32,60,,,,,,,,,,,,,,,,,right,0.46197,,,,,,,,0,6,6,12,1,,
,,,,,,,stim2/pa+30.wav,5e88a67c651ae60009602e69,2021-01-20_17h00.29.295,Spanish_step2,2020.2.3,Win32,60,,,,,,,,,,,,,,,,,left,0.4676,,,,,,,,0,7,7,5,1,,
,,,,,,,stim2/pa+20.wav,5e88a67c651ae60009602e69,2021-01-20_17h00.29.295,Spanish_step2,2020.2.3,Win32,60,,,,,,,,,,,,,,,,,left,0.418115,,,,,,,,0,8,8,3,1,,
,,,,,,,stim2/pa-20.wav,5e88a67c651ae60009602e69,2021-01-20_17h00.29.295,Spanish_step2,2020.2.3,Win32,60,,,,,,,,,,,,,,,,,right,0.372015,,,,,,,,0,9,9,13,1,,
,,,,,,,stim2/pa-30.wav,5e88a67c651ae60009602e69,2021-01-20_17h00.29.295,Spanish_step2,2020.2.3,Win32,60,,,,,,,,,,,,,,,,,right,0.683855,,,,,,,,0,10,10,15,1,,
,,,,,,,stim2/pa-10.wav,5e88a67c651ae60009602e69,2021-01-20_17h00.29.295,Spanish_step2,2020.2.3,Win32,60,,,,,,,,,,,,,,,,,right,0.89126,,,,,,,,0,11,11,11,1,,
,,,,,,,stim2/pa+40.wav,5e88a67c651ae60009602e69,2021-01-20_17h00.29.295,Spanish_step2,2020.2.3,Win32,60,,,,,,,,,,,,,,,,,left,0.334725,,,,,,,,0,12,12,7,1,,
,,,,,,,stim2/pa+50.wav,5e88a67c651ae60009602e69,2021-01-20_17h00.29.295,Spanish_step2,2020.2.3,Win32,60,,,,,,,,,,,,,,,,,left,0.432535,,,,,,,,0,13,13,9,1,,
,,,,,,,stim2/pa+45.wav,5e88a67c651ae60009602e69,2021-01-20_17h00.29.295,Spanish_step2,2020.2.3,Win32,60,,,,,,,,,,,,,,,,,left,0.33887,,,,,,,,0,14,14,8,1,,
,,,,,,,stim2/pa+15.wav,5e88a67c651ae60009602e69,2021-01-20_17h00.29.295,Spanish_step2,2020.2.3,Win32,60,,,,,,,,,,,,,,,,,left,0.383385,,,,,,,,0,15,15,2,1,,
,,,,,,,stim2/pa+35.wav,5e88a67c651ae60009602e69,2021-01-20_17h00.29.295,Spanish_step2,2020.2.3,Win32,60,,,,,,,,,,,,,,,,,left,0.342795,,,,,,,,0,16,16,6,1,,
,,,,,,,stim2/pa+15.wav,5e88a67c651ae60009602e69,2021-01-20_17h00.29.295,Spanish_step2,2020.2.3,Win32,60,,,,,,,,,,,,,,,,,left,0.38342,,,,,,,,1,0,17,2,1,,
,,,,,,,stim2/pa+05.wav,5e88a67c651ae60009602e69,2021-01-20_17h00.29.295,Spanish_step2,2020.2.3,Win32,60,,,,,,,,,,,,,,,,,right,0.33579,,,,,,,,1,1,18,0,1,,
,,,,,,,stim2/pa-10.wav,5e88a67c651ae60009602e69,2021-01-20_17h00.29.295,Spanish_step2,2020.2.3,Win32,60,,,,,,,,,,,,,,,,,right,0.439125,,,,,,,,1,2,19,11,1,,
,,,,,,,stim2/pa-20.wav,5e88a67c651ae60009602e69,2021-01-20_17h00.29.295,Spanish_step2,2020.2.3,Win32,60,,,,,,,,,,,,,,,,,right,0.321575,,,,,,,,1,3,20,13,1,,
,,,,,,,stim2/pa-35.wav,5e88a67c651ae60009602e69,2021-01-20_17h00.29.295,Spanish_step2,2020.2.3,Win32,60,,,,,,,,,,,,,,,,,right,0.32168,,,,,,,,1,4,21,16,1,,
,,,,,,,stim2/pa-15.wav,5e88a67c651ae60009602e69,2021-01-20_17h00.29.295,Spanish_step2,2020.2.3,Win32,60,,,,,,,,,,,,,,,,,right,0.3317,,,,,,,,1,5,22,12,1,,
,,,,,,,stim2/pa+30.wav,5e88a67c651ae60009602e69,2021-01-20_17h00.29.295,Spanish_step2,2020.2.3,Win32,60,,,,,,,,,,,,,,,,,left,0.355095,,,,,,,,1,6,23,5,1,,
,,,,,,,stim2/pa-25.wav,5e88a67c651ae60009602e69,2021-01-20_17h00.29.295,Spanish_step2,2020.2.3,Win32,60,,,,,,,,,,,,,,,,,right,0.35964,,,,,,,,1,7,24,14,1,,
,,,,,,,stim2/pa+25.wav,5e88a67c651ae60009602e69,2021-01-20_17h00.29.295,Spanish_step2,2020.2.3,Win32,60,,,,,,,,,,,,,,,,,left,0.2921,,,,,,,,1,8,25,4,1,,
,,,,,,,stim2/pa+45.wav,5e88a67c651ae60009602e69,2021-01-20_17h00.29.295,Spanish_step2,2020.2.3,Win32,60,,,,,,,,,,,,,,,,,right,0.34613,,,,,,,,1,9,26,8,1,,
,,,,,,,stim2/pa+40.wav,5e88a67c651ae60009602e69,2021-01-20_17h00.29.295,Spanish_step2,2020.2.3,Win32,60,,,,,,,,,,,,,,,,,right,0.628825,,,,,,,,1,10,27,7,1,,
,,,,,,,stim2/pa-30.wav,5e88a67c651ae60009602e69,2021-01-20_17h00.29.295,Spanish_step2,2020.2.3,Win32,60,,,,,,,,,,,,,,,,,right,0.45472,,,,,,,,1,11,28,15,1,,
,,,,,,,stim2/pa+10.wav,5e88a67c651ae60009602e69,2021-01-20_17h00.29.295,Spanish_step2,2020.2.3,Win32,60,,,,,,,,,,,,,,,,,left,0.420215,,,,,,,,1,12,29,1,1,,
,,,,,,,stim2/pa+35.wav,5e88a67c651ae60009602e69,2021-01-20_17h00.29.295,Spanish_step2,2020.2.3,Win32,60,,,,,,,,,,,,,,,,,left,0.698495,,,,,,,,1,13,30,6,1,,
,,,,,,,stim2/pa+20.wav,5e88a67c651ae60009602e69,2021-01-20_17h00.29.295,Spanish_step2,2020.2.3,Win32,60,,,,,,,,,,,,,,,,,left,0.42406,,,,,,,,1,14,31,3,1,,
,,,,,,,stim2/pa+50.wav,5e88a67c651ae60009602e69,2021-01-20_17h00.29.295,Spanish_step2,2020.2.3,Win32,60,,,,,,,,,,,,,,,,,left,0.43327,,,,,,,,1,15,32,9,1,,
,,,,,,,stim2/pa-05.wav,5e88a67c651ae60009602e69,2021-01-20_17h00.29.295,Spanish_step2,2020.2.3,Win32,60,,,,,,,,,,,,,,,,,right,0.43248,,,,,,,,1,16,33,10,1,,
,,,,,,,,5e88a67c651ae60009602e69,2021-01-20_17h00.29.295,Spanish_step2,2020.2.3,Win32,60,,,,,,,,,,,,,,,,,,,,,,,,,,,,,,,space,13.41789
