resp.keys,resp.rt,trials.thisRepN,trials.thisTrialN,trials.thisN,trials.thisIndex,trials.ran,stimuli,participant,date,expName,psychopyVersion,OS,frameRate,gotResponse.keys,gotResponse.rt,resp_2.keys,resp_2.rt,trials_2.thisRepN,trials_2.thisTrialN,trials_2.thisN,trials_2.thisIndex,trials_2.ran,key_resp_3.keys,key_resp_3.corr,key_resp_3.rt,trials_4.thisRepN,trials_4.thisTrialN,trials_4.thisN,trials_4.thisIndex,trials_4.ran,resp_3.keys,resp_3.rt,trials_3.thisRepN,trials_3.thisTrialN,trials_3.thisN,trials_3.thisIndex,trials_3.ran,key_resp_2.keys,key_resp_2.rt,trials_5.thisRepN,trials_5.thisTrialN,trials_5.thisN,trials_5.thisIndex,trials_5.ran,key_resp.keys,key_resp.rt
right,7.03579,0,0,0,1,1,stim/VC_11.wav,5ee579ecd4169f2bee94041e,2021-01-20_05h04.06.462,English_step1,2020.2.3,Win32,60,,,,,,,,,,,,,,,,,,,,,,,,,,,,,,,,,
right,1.715945,0,1,1,0,1,stim/VC_01.wav,5ee579ecd4169f2bee94041e,2021-01-20_05h04.06.462,English_step1,2020.2.3,Win32,60,,,,,,,,,,,,,,,,,,,,,,,,,,,,,,,,,
,,,,,,,stim/VC_09.wav,5ee579ecd4169f2bee94041e,2021-01-20_05h04.06.462,English_step1,2020.2.3,Win32,60,space,2.93859,right,1.036125,0,0,0,8,1,,,,,,,,,,,,,,,,,,,,,,,,
,,,,,,,stim/VC_05.wav,5ee579ecd4169f2bee94041e,2021-01-20_05h04.06.462,English_step1,2020.2.3,Win32,60,,,right,0.590415,0,1,1,4,1,,,,,,,,,,,,,,,,,,,,,,,,
,,,,,,,stim/VC_06.wav,5ee579ecd4169f2bee94041e,2021-01-20_05h04.06.462,English_step1,2020.2.3,Win32,60,,,right,0.533325,0,2,2,5,1,,,,,,,,,,,,,,,,,,,,,,,,
,,,,,,,stim/VC_07.wav,5ee579ecd4169f2bee94041e,2021-01-20_05h04.06.462,English_step1,2020.2.3,Win32,60,,,right,0.77111,0,3,3,6,1,,,,,,,,,,,,,,,,,,,,,,,,
,,,,,,,stim/VC_02.wav,5ee579ecd4169f2bee94041e,2021-01-20_05h04.06.462,English_step1,2020.2.3,Win32,60,,,right,0.73664,0,4,4,1,1,,,,,,,,,,,,,,,,,,,,,,,,
,,,,,,,stim/VC_11.wav,5ee579ecd4169f2bee94041e,2021-01-20_05h04.06.462,English_step1,2020.2.3,Win32,60,,,right,1.562065,0,5,5,10,1,,,,,,,,,,,,,,,,,,,,,,,,
,,,,,,,stim/VC_01.wav,5ee579ecd4169f2bee94041e,2021-01-20_05h04.06.462,English_step1,2020.2.3,Win32,60,,,right,3.441575,0,6,6,0,1,,,,,,,,,,,,,,,,,,,,,,,,
,,,,,,,stim/VC_03.wav,5ee579ecd4169f2bee94041e,2021-01-20_05h04.06.462,English_step1,2020.2.3,Win32,60,,,right,1.84333,0,7,7,2,1,,,,,,,,,,,,,,,,,,,,,,,,
,,,,,,,stim/VC_04.wav,5ee579ecd4169f2bee94041e,2021-01-20_05h04.06.462,English_step1,2020.2.3,Win32,60,,,right,0.72767,0,8,8,3,1,,,,,,,,,,,,,,,,,,,,,,,,
,,,,,,,stim/VC_08.wav,5ee579ecd4169f2bee94041e,2021-01-20_05h04.06.462,English_step1,2020.2.3,Win32,60,,,right,1.526915,0,9,9,7,1,,,,,,,,,,,,,,,,,,,,,,,,
,,,,,,,stim/VC_10.wav,5ee579ecd4169f2bee94041e,2021-01-20_05h04.06.462,English_step1,2020.2.3,Win32,60,,,right,0.67128,0,10,10,9,1,,,,,,,,,,,,,,,,,,,,,,,,
,,,,,,,stim/VC_02.wav,5ee579ecd4169f2bee94041e,2021-01-20_05h04.06.462,English_step1,2020.2.3,Win32,60,,,right,2.03712,1,0,11,1,1,,,,,,,,,,,,,,,,,,,,,,,,
,,,,,,,stim/VC_09.wav,5ee579ecd4169f2bee94041e,2021-01-20_05h04.06.462,English_step1,2020.2.3,Win32,60,,,right,6.850045,1,1,12,8,1,,,,,,,,,,,,,,,,,,,,,,,,
,,,,,,,stim/VC_10.wav,5ee579ecd4169f2bee94041e,2021-01-20_05h04.06.462,English_step1,2020.2.3,Win32,60,,,right,35.68484,1,2,13,9,1,,,,,,,,,,,,,,,,,,,,,,,,
,,,,,,,stim/VC_05.wav,5ee579ecd4169f2bee94041e,2021-01-20_05h04.06.462,English_step1,2020.2.3,Win32,60,,,right,1.53515,1,3,14,4,1,,,,,,,,,,,,,,,,,,,,,,,,
,,,,,,,stim/VC_08.wav,5ee579ecd4169f2bee94041e,2021-01-20_05h04.06.462,English_step1,2020.2.3,Win32,60,,,right,2.4836,1,4,15,7,1,,,,,,,,,,,,,,,,,,,,,,,,
,,,,,,,stim/VC_06.wav,5ee579ecd4169f2bee94041e,2021-01-20_05h04.06.462,English_step1,2020.2.3,Win32,60,,,right,0.900815,1,5,16,5,1,,,,,,,,,,,,,,,,,,,,,,,,
,,,,,,,stim/VC_11.wav,5ee579ecd4169f2bee94041e,2021-01-20_05h04.06.462,English_step1,2020.2.3,Win32,60,,,right,2.46047,1,6,17,10,1,,,,,,,,,,,,,,,,,,,,,,,,
,,,,,,,stim/VC_07.wav,5ee579ecd4169f2bee94041e,2021-01-20_05h04.06.462,English_step1,2020.2.3,Win32,60,,,right,3.282045,1,7,18,6,1,,,,,,,,,,,,,,,,,,,,,,,,
,,,,,,,stim/VC_04.wav,5ee579ecd4169f2bee94041e,2021-01-20_05h04.06.462,English_step1,2020.2.3,Win32,60,,,right,3.03782,1,8,19,3,1,,,,,,,,,,,,,,,,,,,,,,,,
,,,,,,,stim/VC_03.wav,5ee579ecd4169f2bee94041e,2021-01-20_05h04.06.462,English_step1,2020.2.3,Win32,60,,,left,0.933285,1,9,20,2,1,,,,,,,,,,,,,,,,,,,,,,,,
,,,,,,,stim/VC_01.wav,5ee579ecd4169f2bee94041e,2021-01-20_05h04.06.462,English_step1,2020.2.3,Win32,60,,,right,0.448085,1,10,21,0,1,,,,,,,,,,,,,,,,,,,,,,,,
,,,,,,,stim/VC_03.wav,5ee579ecd4169f2bee94041e,2021-01-20_05h04.06.462,English_step1,2020.2.3,Win32,60,,,right,10.346335,2,0,22,2,1,,,,,,,,,,,,,,,,,,,,,,,,
,,,,,,,stim/VC_10.wav,5ee579ecd4169f2bee94041e,2021-01-20_05h04.06.462,English_step1,2020.2.3,Win32,60,,,right,0.75081,2,1,23,9,1,,,,,,,,,,,,,,,,,,,,,,,,
,,,,,,,stim/VC_07.wav,5ee579ecd4169f2bee94041e,2021-01-20_05h04.06.462,English_step1,2020.2.3,Win32,60,,,right,27.259605,2,2,24,6,1,,,,,,,,,,,,,,,,,,,,,,,,
,,,,,,,stim/VC_06.wav,5ee579ecd4169f2bee94041e,2021-01-20_05h04.06.462,English_step1,2020.2.3,Win32,60,,,right,0.767205,2,3,25,5,1,,,,,,,,,,,,,,,,,,,,,,,,
,,,,,,,stim/VC_01.wav,5ee579ecd4169f2bee94041e,2021-01-20_05h04.06.462,English_step1,2020.2.3,Win32,60,,,right,0.55041,2,4,26,0,1,,,,,,,,,,,,,,,,,,,,,,,,
,,,,,,,stim/VC_11.wav,5ee579ecd4169f2bee94041e,2021-01-20_05h04.06.462,English_step1,2020.2.3,Win32,60,,,right,0.47353,2,5,27,10,1,,,,,,,,,,,,,,,,,,,,,,,,
,,,,,,,stim/VC_04.wav,5ee579ecd4169f2bee94041e,2021-01-20_05h04.06.462,English_step1,2020.2.3,Win32,60,,,right,3.883445,2,6,28,3,1,,,,,,,,,,,,,,,,,,,,,,,,
,,,,,,,stim/VC_08.wav,5ee579ecd4169f2bee94041e,2021-01-20_05h04.06.462,English_step1,2020.2.3,Win32,60,,,right,4.53081,2,7,29,7,1,,,,,,,,,,,,,,,,,,,,,,,,
,,,,,,,stim/VC_05.wav,5ee579ecd4169f2bee94041e,2021-01-20_05h04.06.462,English_step1,2020.2.3,Win32,60,,,right,0.60281,2,8,30,4,1,,,,,,,,,,,,,,,,,,,,,,,,
,,,,,,,stim/VC_02.wav,5ee579ecd4169f2bee94041e,2021-01-20_05h04.06.462,English_step1,2020.2.3,Win32,60,,,right,0.441325,2,9,31,1,1,,,,,,,,,,,,,,,,,,,,,,,,
,,,,,,,stim/VC_09.wav,5ee579ecd4169f2bee94041e,2021-01-20_05h04.06.462,English_step1,2020.2.3,Win32,60,,,right,1.000415,2,10,32,8,1,,,,,,,,,,,,,,,,,,,,,,,,
,,,,,,,stim/VC_09.wav,5ee579ecd4169f2bee94041e,2021-01-20_05h04.06.462,English_step1,2020.2.3,Win32,60,,,right,1.536445,,,,,,4,0,5.719535,0,0,0,8,1,,,,,,,,,,,,,,,,
,,,,,,,stim/VC_10.wav,5ee579ecd4169f2bee94041e,2021-01-20_05h04.06.462,English_step1,2020.2.3,Win32,60,,,right,0.901435,,,,,,,,,0,1,1,9,1,,,,,,,,,,,,,,,,
,,,,,,,stim/VC_08.wav,5ee579ecd4169f2bee94041e,2021-01-20_05h04.06.462,English_step1,2020.2.3,Win32,60,,,right,1.12019,,,,,,,,,0,2,2,7,1,,,,,,,,,,,,,,,,
,,,,,,,stim/VC_07.wav,5ee579ecd4169f2bee94041e,2021-01-20_05h04.06.462,English_step1,2020.2.3,Win32,60,,,right,1.006625,,,,,,,,,0,3,3,6,1,,,,,,,,,,,,,,,,
,,,,,,,stim/VC_05.wav,5ee579ecd4169f2bee94041e,2021-01-20_05h04.06.462,English_step1,2020.2.3,Win32,60,,,right,0.7009,,,,,,,,,0,4,4,4,1,,,,,,,,,,,,,,,,
,,,,,,,stim/VC_02.wav,5ee579ecd4169f2bee94041e,2021-01-20_05h04.06.462,English_step1,2020.2.3,Win32,60,,,right,1.649645,,,,,,,,,0,5,5,1,1,,,,,,,,,,,,,,,,
,,,,,,,stim/VC_01.wav,5ee579ecd4169f2bee94041e,2021-01-20_05h04.06.462,English_step1,2020.2.3,Win32,60,,,right,0.87482,,,,,,,,,0,6,6,0,1,,,,,,,,,,,,,,,,
,,,,,,,stim/VC_04.wav,5ee579ecd4169f2bee94041e,2021-01-20_05h04.06.462,English_step1,2020.2.3,Win32,60,,,right,0.63946,,,,,,,,,0,7,7,3,1,,,,,,,,,,,,,,,,
,,,,,,,stim/VC_11.wav,5ee579ecd4169f2bee94041e,2021-01-20_05h04.06.462,English_step1,2020.2.3,Win32,60,,,right,0.567125,,,,,,,,,0,8,8,10,1,,,,,,,,,,,,,,,,
,,,,,,,stim/VC_03.wav,5ee579ecd4169f2bee94041e,2021-01-20_05h04.06.462,English_step1,2020.2.3,Win32,60,,,right,0.52406,,,,,,,,,0,9,9,2,1,,,,,,,,,,,,,,,,
,,,,,,,stim/VC_06.wav,5ee579ecd4169f2bee94041e,2021-01-20_05h04.06.462,English_step1,2020.2.3,Win32,60,,,right,0.562895,,,,,,,,,0,10,10,5,1,,,,,,,,,,,,,,,,
,,,,,,,stim/VC_02.wav,5ee579ecd4169f2bee94041e,2021-01-20_05h04.06.462,English_step1,2020.2.3,Win32,60,,,right,0.550265,,,,,,,,,1,0,11,1,1,,,,,,,,,,,,,,,,
,,,,,,,stim/VC_06.wav,5ee579ecd4169f2bee94041e,2021-01-20_05h04.06.462,English_step1,2020.2.3,Win32,60,,,right,0.461945,,,,,,,,,1,1,12,5,1,,,,,,,,,,,,,,,,
,,,,,,,stim/VC_10.wav,5ee579ecd4169f2bee94041e,2021-01-20_05h04.06.462,English_step1,2020.2.3,Win32,60,,,right,0.600185,,,,,,,,,1,2,13,9,1,,,,,,,,,,,,,,,,
,,,,,,,stim/VC_08.wav,5ee579ecd4169f2bee94041e,2021-01-20_05h04.06.462,English_step1,2020.2.3,Win32,60,,,right,0.70523,,,,,,,,,1,3,14,7,1,,,,,,,,,,,,,,,,
,,,,,,,stim/VC_04.wav,5ee579ecd4169f2bee94041e,2021-01-20_05h04.06.462,English_step1,2020.2.3,Win32,60,,,right,0.582535,,,,,,,,,1,4,15,3,1,,,,,,,,,,,,,,,,
,,,,,,,stim/VC_07.wav,5ee579ecd4169f2bee94041e,2021-01-20_05h04.06.462,English_step1,2020.2.3,Win32,60,,,right,0.767635,,,,,,,,,1,5,16,6,1,,,,,,,,,,,,,,,,
,,,,,,,stim/VC_09.wav,5ee579ecd4169f2bee94041e,2021-01-20_05h04.06.462,English_step1,2020.2.3,Win32,60,,,right,0.595475,,,,,,,,,1,6,17,8,1,,,,,,,,,,,,,,,,
,,,,,,,stim/VC_03.wav,5ee579ecd4169f2bee94041e,2021-01-20_05h04.06.462,English_step1,2020.2.3,Win32,60,,,right,0.57222,,,,,,,,,1,7,18,2,1,,,,,,,,,,,,,,,,
,,,,,,,stim/VC_11.wav,5ee579ecd4169f2bee94041e,2021-01-20_05h04.06.462,English_step1,2020.2.3,Win32,60,,,right,1.272445,,,,,,,,,1,8,19,10,1,,,,,,,,,,,,,,,,
,,,,,,,stim/VC_05.wav,5ee579ecd4169f2bee94041e,2021-01-20_05h04.06.462,English_step1,2020.2.3,Win32,60,,,right,0.832955,,,,,,,,,1,9,20,4,1,,,,,,,,,,,,,,,,
,,,,,,,stim/VC_01.wav,5ee579ecd4169f2bee94041e,2021-01-20_05h04.06.462,English_step1,2020.2.3,Win32,60,,,right,0.74679,,,,,,,,,1,10,21,0,1,,,,,,,,,,,,,,,,
,,,,,,,stim2/pa+10.wav,5ee579ecd4169f2bee94041e,2021-01-20_05h04.06.462,English_step1,2020.2.3,Win32,60,,,,,,,,,,,,,,,,,,left,1.805115,0,0,0,1,1,,,,,,,,,
,,,,,,,stim2/pa+30.wav,5ee579ecd4169f2bee94041e,2021-01-20_05h04.06.462,English_step1,2020.2.3,Win32,60,,,,,,,,,,,,,,,,,,left,1.670395,0,1,1,5,1,,,,,,,,,
,,,,,,,stim2/pa-20.wav,5ee579ecd4169f2bee94041e,2021-01-20_05h04.06.462,English_step1,2020.2.3,Win32,60,,,,,,,,,,,,,,,,,,left,2.760355,0,2,2,13,1,,,,,,,,,
,,,,,,,stim2/pa+50.wav,5ee579ecd4169f2bee94041e,2021-01-20_05h04.06.462,English_step1,2020.2.3,Win32,60,,,,,,,,,,,,,,,,,,left,1.38222,0,3,3,9,1,,,,,,,,,
,,,,,,,stim2/pa+35.wav,5ee579ecd4169f2bee94041e,2021-01-20_05h04.06.462,English_step1,2020.2.3,Win32,60,,,,,,,,,,,,,,,,,,left,1.039845,0,4,4,6,1,,,,,,,,,
,,,,,,,stim2/pa-35.wav,5ee579ecd4169f2bee94041e,2021-01-20_05h04.06.462,English_step1,2020.2.3,Win32,60,,,,,,,,,,,,,,,,,,right,1.09397,0,5,5,16,1,,,,,,,,,
,,,,,,,stim2/pa+20.wav,5ee579ecd4169f2bee94041e,2021-01-20_05h04.06.462,English_step1,2020.2.3,Win32,60,,,,,,,,,,,,,,,,,,right,0.66818,0,6,6,3,1,,,,,,,,,
,,,,,,,stim2/pa-30.wav,5ee579ecd4169f2bee94041e,2021-01-20_05h04.06.462,English_step1,2020.2.3,Win32,60,,,,,,,,,,,,,,,,,,right,0.583615,0,7,7,15,1,,,,,,,,,
,,,,,,,stim2/pa+15.wav,5ee579ecd4169f2bee94041e,2021-01-20_05h04.06.462,English_step1,2020.2.3,Win32,60,,,,,,,,,,,,,,,,,,left,0.705905,0,8,8,2,1,,,,,,,,,
,,,,,,,stim2/pa-15.wav,5ee579ecd4169f2bee94041e,2021-01-20_05h04.06.462,English_step1,2020.2.3,Win32,60,,,,,,,,,,,,,,,,,,right,0.609335,0,9,9,12,1,,,,,,,,,
,,,,,,,stim2/pa+40.wav,5ee579ecd4169f2bee94041e,2021-01-20_05h04.06.462,English_step1,2020.2.3,Win32,60,,,,,,,,,,,,,,,,,,left,2.007345,0,10,10,7,1,,,,,,,,,
,,,,,,,stim2/pa+45.wav,5ee579ecd4169f2bee94041e,2021-01-20_05h04.06.462,English_step1,2020.2.3,Win32,60,,,,,,,,,,,,,,,,,,left,0.759995,0,11,11,8,1,,,,,,,,,
,,,,,,,stim2/pa-10.wav,5ee579ecd4169f2bee94041e,2021-01-20_05h04.06.462,English_step1,2020.2.3,Win32,60,,,,,,,,,,,,,,,,,,right,0.619045,0,12,12,11,1,,,,,,,,,
,,,,,,,stim2/pa+25.wav,5ee579ecd4169f2bee94041e,2021-01-20_05h04.06.462,English_step1,2020.2.3,Win32,60,,,,,,,,,,,,,,,,,,left,1.021825,0,13,13,4,1,,,,,,,,,
,,,,,,,stim2/pa-05.wav,5ee579ecd4169f2bee94041e,2021-01-20_05h04.06.462,English_step1,2020.2.3,Win32,60,,,,,,,,,,,,,,,,,,right,0.74337,0,14,14,10,1,,,,,,,,,
,,,,,,,stim2/pa-25.wav,5ee579ecd4169f2bee94041e,2021-01-20_05h04.06.462,English_step1,2020.2.3,Win32,60,,,,,,,,,,,,,,,,,,right,0.6495,0,15,15,14,1,,,,,,,,,
,,,,,,,stim2/pa+05.wav,5ee579ecd4169f2bee94041e,2021-01-20_05h04.06.462,English_step1,2020.2.3,Win32,60,,,,,,,,,,,,,,,,,,right,0.70437,0,16,16,0,1,,,,,,,,,
,,,,,,,stim2/pa-35.wav,5ee579ecd4169f2bee94041e,2021-01-20_05h04.06.462,English_step1,2020.2.3,Win32,60,,,,,,,,,,,,,,,,,,right,0.667725,1,0,17,16,1,,,,,,,,,
,,,,,,,stim2/pa+40.wav,5ee579ecd4169f2bee94041e,2021-01-20_05h04.06.462,English_step1,2020.2.3,Win32,60,,,,,,,,,,,,,,,,,,right,0.98254,1,1,18,7,1,,,,,,,,,
,,,,,,,stim2/pa-15.wav,5ee579ecd4169f2bee94041e,2021-01-20_05h04.06.462,English_step1,2020.2.3,Win32,60,,,,,,,,,,,,,,,,,,right,0.59447,1,2,19,12,1,,,,,,,,,
,,,,,,,stim2/pa+10.wav,5ee579ecd4169f2bee94041e,2021-01-20_05h04.06.462,English_step1,2020.2.3,Win32,60,,,,,,,,,,,,,,,,,,left,0.600615,1,3,20,1,1,,,,,,,,,
,,,,,,,stim2/pa+45.wav,5ee579ecd4169f2bee94041e,2021-01-20_05h04.06.462,English_step1,2020.2.3,Win32,60,,,,,,,,,,,,,,,,,,left,1.23861,1,4,21,8,1,,,,,,,,,
,,,,,,,stim2/pa+05.wav,5ee579ecd4169f2bee94041e,2021-01-20_05h04.06.462,English_step1,2020.2.3,Win32,60,,,,,,,,,,,,,,,,,,left,0.633945,1,5,22,0,1,,,,,,,,,
,,,,,,,stim2/pa+35.wav,5ee579ecd4169f2bee94041e,2021-01-20_05h04.06.462,English_step1,2020.2.3,Win32,60,,,,,,,,,,,,,,,,,,left,0.61695,1,6,23,6,1,,,,,,,,,
,,,,,,,stim2/pa+25.wav,5ee579ecd4169f2bee94041e,2021-01-20_05h04.06.462,English_step1,2020.2.3,Win32,60,,,,,,,,,,,,,,,,,,left,0.563575,1,7,24,4,1,,,,,,,,,
,,,,,,,stim2/pa+20.wav,5ee579ecd4169f2bee94041e,2021-01-20_05h04.06.462,English_step1,2020.2.3,Win32,60,,,,,,,,,,,,,,,,,,left,0.501885,1,8,25,3,1,,,,,,,,,
,,,,,,,stim2/pa-25.wav,5ee579ecd4169f2bee94041e,2021-01-20_05h04.06.462,English_step1,2020.2.3,Win32,60,,,,,,,,,,,,,,,,,,left,1.042245,1,9,26,14,1,,,,,,,,,
,,,,,,,stim2/pa-10.wav,5ee579ecd4169f2bee94041e,2021-01-20_05h04.06.462,English_step1,2020.2.3,Win32,60,,,,,,,,,,,,,,,,,,right,0.61651,1,10,27,11,1,,,,,,,,,
,,,,,,,stim2/pa-20.wav,5ee579ecd4169f2bee94041e,2021-01-20_05h04.06.462,English_step1,2020.2.3,Win32,60,,,,,,,,,,,,,,,,,,right,0.880455,1,11,28,13,1,,,,,,,,,
,,,,,,,stim2/pa+15.wav,5ee579ecd4169f2bee94041e,2021-01-20_05h04.06.462,English_step1,2020.2.3,Win32,60,,,,,,,,,,,,,,,,,,left,0.738105,1,12,29,2,1,,,,,,,,,
,,,,,,,stim2/pa+30.wav,5ee579ecd4169f2bee94041e,2021-01-20_05h04.06.462,English_step1,2020.2.3,Win32,60,,,,,,,,,,,,,,,,,,left,0.55342,1,13,30,5,1,,,,,,,,,
,,,,,,,stim2/pa+50.wav,5ee579ecd4169f2bee94041e,2021-01-20_05h04.06.462,English_step1,2020.2.3,Win32,60,,,,,,,,,,,,,,,,,,left,0.687515,1,14,31,9,1,,,,,,,,,
,,,,,,,stim2/pa-30.wav,5ee579ecd4169f2bee94041e,2021-01-20_05h04.06.462,English_step1,2020.2.3,Win32,60,,,,,,,,,,,,,,,,,,left,0.739015,1,15,32,15,1,,,,,,,,,
,,,,,,,stim2/pa-05.wav,5ee579ecd4169f2bee94041e,2021-01-20_05h04.06.462,English_step1,2020.2.3,Win32,60,,,,,,,,,,,,,,,,,,left,0.650075,1,16,33,10,1,,,,,,,,,
,,,,,,,stim2/pa-05.wav,5ee579ecd4169f2bee94041e,2021-01-20_05h04.06.462,English_step1,2020.2.3,Win32,60,,,,,,,,,,,,,,,,,,left,0.74156,2,0,34,10,1,,,,,,,,,
,,,,,,,stim2/pa+50.wav,5ee579ecd4169f2bee94041e,2021-01-20_05h04.06.462,English_step1,2020.2.3,Win32,60,,,,,,,,,,,,,,,,,,left,0.5757,2,1,35,9,1,,,,,,,,,
,,,,,,,stim2/pa+05.wav,5ee579ecd4169f2bee94041e,2021-01-20_05h04.06.462,English_step1,2020.2.3,Win32,60,,,,,,,,,,,,,,,,,,left,0.535175,2,2,36,0,1,,,,,,,,,
,,,,,,,stim2/pa-20.wav,5ee579ecd4169f2bee94041e,2021-01-20_05h04.06.462,English_step1,2020.2.3,Win32,60,,,,,,,,,,,,,,,,,,right,0.93904,2,3,37,13,1,,,,,,,,,
,,,,,,,stim2/pa+35.wav,5ee579ecd4169f2bee94041e,2021-01-20_05h04.06.462,English_step1,2020.2.3,Win32,60,,,,,,,,,,,,,,,,,,left,0.711575,2,4,38,6,1,,,,,,,,,
,,,,,,,stim2/pa+25.wav,5ee579ecd4169f2bee94041e,2021-01-20_05h04.06.462,English_step1,2020.2.3,Win32,60,,,,,,,,,,,,,,,,,,left,0.673585,2,5,39,4,1,,,,,,,,,
,,,,,,,stim2/pa+20.wav,5ee579ecd4169f2bee94041e,2021-01-20_05h04.06.462,English_step1,2020.2.3,Win32,60,,,,,,,,,,,,,,,,,,left,0.769985,2,6,40,3,1,,,,,,,,,
,,,,,,,stim2/pa-25.wav,5ee579ecd4169f2bee94041e,2021-01-20_05h04.06.462,English_step1,2020.2.3,Win32,60,,,,,,,,,,,,,,,,,,right,0.604815,2,7,41,14,1,,,,,,,,,
,,,,,,,stim2/pa+15.wav,5ee579ecd4169f2bee94041e,2021-01-20_05h04.06.462,English_step1,2020.2.3,Win32,60,,,,,,,,,,,,,,,,,,left,0.74101,2,8,42,2,1,,,,,,,,,
,,,,,,,stim2/pa+45.wav,5ee579ecd4169f2bee94041e,2021-01-20_05h04.06.462,English_step1,2020.2.3,Win32,60,,,,,,,,,,,,,,,,,,left,0.569195,2,9,43,8,1,,,,,,,,,
,,,,,,,stim2/pa-30.wav,5ee579ecd4169f2bee94041e,2021-01-20_05h04.06.462,English_step1,2020.2.3,Win32,60,,,,,,,,,,,,,,,,,,right,0.58251,2,10,44,15,1,,,,,,,,,
,,,,,,,stim2/pa+30.wav,5ee579ecd4169f2bee94041e,2021-01-20_05h04.06.462,English_step1,2020.2.3,Win32,60,,,,,,,,,,,,,,,,,,left,0.75276,2,11,45,5,1,,,,,,,,,
,,,,,,,stim2/pa-10.wav,5ee579ecd4169f2bee94041e,2021-01-20_05h04.06.462,English_step1,2020.2.3,Win32,60,,,,,,,,,,,,,,,,,,right,0.866305,2,12,46,11,1,,,,,,,,,
,,,,,,,stim2/pa-35.wav,5ee579ecd4169f2bee94041e,2021-01-20_05h04.06.462,English_step1,2020.2.3,Win32,60,,,,,,,,,,,,,,,,,,right,0.64502,2,13,47,16,1,,,,,,,,,
,,,,,,,stim2/pa-15.wav,5ee579ecd4169f2bee94041e,2021-01-20_05h04.06.462,English_step1,2020.2.3,Win32,60,,,,,,,,,,,,,,,,,,right,0.450805,2,14,48,12,1,,,,,,,,,
,,,,,,,stim2/pa+10.wav,5ee579ecd4169f2bee94041e,2021-01-20_05h04.06.462,English_step1,2020.2.3,Win32,60,,,,,,,,,,,,,,,,,,left,0.788385,2,15,49,1,1,,,,,,,,,
,,,,,,,stim2/pa+40.wav,5ee579ecd4169f2bee94041e,2021-01-20_05h04.06.462,English_step1,2020.2.3,Win32,60,,,,,,,,,,,,,,,,,,left,0.583235,2,16,50,7,1,,,,,,,,,
,,,,,,,stim2/pa+50.wav,5ee579ecd4169f2bee94041e,2021-01-20_05h04.06.462,English_step1,2020.2.3,Win32,60,,,,,,,,,,,,,,,,,,right,0.89231,,,,,,q,7.40579,0,0,0,9,1,,
,,,,,,,stim2/pa-30.wav,5ee579ecd4169f2bee94041e,2021-01-20_05h04.06.462,English_step1,2020.2.3,Win32,60,,,,,,,,,,,,,,,,,,right,0.53651,,,,,,,,0,1,1,15,1,,
,,,,,,,stim2/pa+10.wav,5ee579ecd4169f2bee94041e,2021-01-20_05h04.06.462,English_step1,2020.2.3,Win32,60,,,,,,,,,,,,,,,,,,left,0.808855,,,,,,,,0,2,2,1,1,,
,,,,,,,stim2/pa+30.wav,5ee579ecd4169f2bee94041e,2021-01-20_05h04.06.462,English_step1,2020.2.3,Win32,60,,,,,,,,,,,,,,,,,,left,1.140455,,,,,,,,0,3,3,5,1,,
,,,,,,,stim2/pa+25.wav,5ee579ecd4169f2bee94041e,2021-01-20_05h04.06.462,English_step1,2020.2.3,Win32,60,,,,,,,,,,,,,,,,,,left,0.47333,,,,,,,,0,4,4,4,1,,
,,,,,,,stim2/pa+45.wav,5ee579ecd4169f2bee94041e,2021-01-20_05h04.06.462,English_step1,2020.2.3,Win32,60,,,,,,,,,,,,,,,,,,left,0.5169,,,,,,,,0,5,5,8,1,,
,,,,,,,stim2/pa+35.wav,5ee579ecd4169f2bee94041e,2021-01-20_05h04.06.462,English_step1,2020.2.3,Win32,60,,,,,,,,,,,,,,,,,,left,0.459375,,,,,,,,0,6,6,6,1,,
,,,,,,,stim2/pa-05.wav,5ee579ecd4169f2bee94041e,2021-01-20_05h04.06.462,English_step1,2020.2.3,Win32,60,,,,,,,,,,,,,,,,,,left,0.53172,,,,,,,,0,7,7,10,1,,
,,,,,,,stim2/pa+40.wav,5ee579ecd4169f2bee94041e,2021-01-20_05h04.06.462,English_step1,2020.2.3,Win32,60,,,,,,,,,,,,,,,,,,left,0.46063,,,,,,,,0,8,8,7,1,,
,,,,,,,stim2/pa+05.wav,5ee579ecd4169f2bee94041e,2021-01-20_05h04.06.462,English_step1,2020.2.3,Win32,60,,,,,,,,,,,,,,,,,,left,0.453115,,,,,,,,0,9,9,0,1,,
,,,,,,,stim2/pa-20.wav,5ee579ecd4169f2bee94041e,2021-01-20_05h04.06.462,English_step1,2020.2.3,Win32,60,,,,,,,,,,,,,,,,,,right,0.899965,,,,,,,,0,10,10,13,1,,
,,,,,,,stim2/pa-25.wav,5ee579ecd4169f2bee94041e,2021-01-20_05h04.06.462,English_step1,2020.2.3,Win32,60,,,,,,,,,,,,,,,,,,right,1.144715,,,,,,,,0,11,11,14,1,,
,,,,,,,stim2/pa+15.wav,5ee579ecd4169f2bee94041e,2021-01-20_05h04.06.462,English_step1,2020.2.3,Win32,60,,,,,,,,,,,,,,,,,,left,0.62451,,,,,,,,0,12,12,2,1,,
,,,,,,,stim2/pa-35.wav,5ee579ecd4169f2bee94041e,2021-01-20_05h04.06.462,English_step1,2020.2.3,Win32,60,,,,,,,,,,,,,,,,,,right,0.705365,,,,,,,,0,13,13,16,1,,
,,,,,,,stim2/pa+20.wav,5ee579ecd4169f2bee94041e,2021-01-20_05h04.06.462,English_step1,2020.2.3,Win32,60,,,,,,,,,,,,,,,,,,right,0.45059,,,,,,,,0,14,14,3,1,,
,,,,,,,stim2/pa-10.wav,5ee579ecd4169f2bee94041e,2021-01-20_05h04.06.462,English_step1,2020.2.3,Win32,60,,,,,,,,,,,,,,,,,,right,0.70086,,,,,,,,0,15,15,11,1,,
,,,,,,,stim2/pa-15.wav,5ee579ecd4169f2bee94041e,2021-01-20_05h04.06.462,English_step1,2020.2.3,Win32,60,,,,,,,,,,,,,,,,,,right,0.80094,,,,,,,,0,16,16,12,1,,
,,,,,,,stim2/pa+40.wav,5ee579ecd4169f2bee94041e,2021-01-20_05h04.06.462,English_step1,2020.2.3,Win32,60,,,,,,,,,,,,,,,,,,left,0.784675,,,,,,,,1,0,17,7,1,,
,,,,,,,stim2/pa-35.wav,5ee579ecd4169f2bee94041e,2021-01-20_05h04.06.462,English_step1,2020.2.3,Win32,60,,,,,,,,,,,,,,,,,,right,1.21665,,,,,,,,1,1,18,16,1,,
,,,,,,,stim2/pa+35.wav,5ee579ecd4169f2bee94041e,2021-01-20_05h04.06.462,English_step1,2020.2.3,Win32,60,,,,,,,,,,,,,,,,,,left,0.91878,,,,,,,,1,2,19,6,1,,
,,,,,,,stim2/pa-30.wav,5ee579ecd4169f2bee94041e,2021-01-20_05h04.06.462,English_step1,2020.2.3,Win32,60,,,,,,,,,,,,,,,,,,right,0.71933,,,,,,,,1,3,20,15,1,,
,,,,,,,stim2/pa+25.wav,5ee579ecd4169f2bee94041e,2021-01-20_05h04.06.462,English_step1,2020.2.3,Win32,60,,,,,,,,,,,,,,,,,,left,0.88444,,,,,,,,1,4,21,4,1,,
,,,,,,,stim2/pa-20.wav,5ee579ecd4169f2bee94041e,2021-01-20_05h04.06.462,English_step1,2020.2.3,Win32,60,,,,,,,,,,,,,,,,,,right,0.81089,,,,,,,,1,5,22,13,1,,
,,,,,,,stim2/pa+10.wav,5ee579ecd4169f2bee94041e,2021-01-20_05h04.06.462,English_step1,2020.2.3,Win32,60,,,,,,,,,,,,,,,,,,left,0.81121,,,,,,,,1,6,23,1,1,,
,,,,,,,stim2/pa+45.wav,5ee579ecd4169f2bee94041e,2021-01-20_05h04.06.462,English_step1,2020.2.3,Win32,60,,,,,,,,,,,,,,,,,,left,0.53424,,,,,,,,1,7,24,8,1,,
,,,,,,,stim2/pa-25.wav,5ee579ecd4169f2bee94041e,2021-01-20_05h04.06.462,English_step1,2020.2.3,Win32,60,,,,,,,,,,,,,,,,,,right,0.62867,,,,,,,,1,8,25,14,1,,
,,,,,,,stim2/pa+15.wav,5ee579ecd4169f2bee94041e,2021-01-20_05h04.06.462,English_step1,2020.2.3,Win32,60,,,,,,,,,,,,,,,,,,left,0.70465,,,,,,,,1,9,26,2,1,,
,,,,,,,stim2/pa-05.wav,5ee579ecd4169f2bee94041e,2021-01-20_05h04.06.462,English_step1,2020.2.3,Win32,60,,,,,,,,,,,,,,,,,,left,1.164835,,,,,,,,1,10,27,10,1,,
,,,,,,,stim2/pa+05.wav,5ee579ecd4169f2bee94041e,2021-01-20_05h04.06.462,English_step1,2020.2.3,Win32,60,,,,,,,,,,,,,,,,,,left,0.70056,,,,,,,,1,11,28,0,1,,
,,,,,,,stim2/pa-15.wav,5ee579ecd4169f2bee94041e,2021-01-20_05h04.06.462,English_step1,2020.2.3,Win32,60,,,,,,,,,,,,,,,,,,right,0.46699,,,,,,,,1,12,29,12,1,,
,,,,,,,stim2/pa-10.wav,5ee579ecd4169f2bee94041e,2021-01-20_05h04.06.462,English_step1,2020.2.3,Win32,60,,,,,,,,,,,,,,,,,,right,0.599885,,,,,,,,1,13,30,11,1,,
,,,,,,,stim2/pa+30.wav,5ee579ecd4169f2bee94041e,2021-01-20_05h04.06.462,English_step1,2020.2.3,Win32,60,,,,,,,,,,,,,,,,,,left,0.56792,,,,,,,,1,14,31,5,1,,
,,,,,,,stim2/pa+50.wav,5ee579ecd4169f2bee94041e,2021-01-20_05h04.06.462,English_step1,2020.2.3,Win32,60,,,,,,,,,,,,,,,,,,left,0.71868,,,,,,,,1,15,32,9,1,,
,,,,,,,stim2/pa+20.wav,5ee579ecd4169f2bee94041e,2021-01-20_05h04.06.462,English_step1,2020.2.3,Win32,60,,,,,,,,,,,,,,,,,,left,0.75604,,,,,,,,1,16,33,3,1,,
,,,,,,,,5ee579ecd4169f2bee94041e,2021-01-20_05h04.06.462,English_step1,2020.2.3,Win32,60,,,,,,,,,,,,,,,,,,,,,,,,,,,,,,,,space,12.703555
