resp.keys,resp.rt,trials.thisRepN,trials.thisTrialN,trials.thisN,trials.thisIndex,trials.ran,stimuli,participant,date,expName,psychopyVersion,OS,frameRate,gotResponse.keys,gotResponse.rt,resp_2.keys,resp_2.rt,trials_2.thisRepN,trials_2.thisTrialN,trials_2.thisN,trials_2.thisIndex,trials_2.ran,key_resp_3.keys,key_resp_3.rt,trials_4.thisRepN,trials_4.thisTrialN,trials_4.thisN,trials_4.thisIndex,trials_4.ran,resp_3.keys,resp_3.rt,trials_3.thisRepN,trials_3.thisTrialN,trials_3.thisN,trials_3.thisIndex,trials_3.ran,key_resp_2.keys,key_resp_2.rt,trials_5.thisRepN,trials_5.thisTrialN,trials_5.thisN,trials_5.thisIndex,trials_5.ran,key_resp.keys,key_resp.rt
left,2.353,0,0,0,0,1,stim/VC_01.wav,5fa0bf0afbd42f13cf56e987,2020-12-28_23h07.05.621,2_afc_fren,2020.2.3,MacIntel,60,,,,,,,,,,,,,,,,,,,,,,,,,,,,,,,,
right,0.821,0,1,1,1,1,stim/VC_11.wav,5fa0bf0afbd42f13cf56e987,2020-12-28_23h07.05.621,2_afc_fren,2020.2.3,MacIntel,60,,,,,,,,,,,,,,,,,,,,,,,,,,,,,,,,
,,,,,,,stim/VC_06.wav,5fa0bf0afbd42f13cf56e987,2020-12-28_23h07.05.621,2_afc_fren,2020.2.3,MacIntel,60,space,3.768,right,1.996,0,0,0,5,1,,,,,,,,,,,,,,,,,,,,,,,
,,,,,,,stim/VC_11.wav,5fa0bf0afbd42f13cf56e987,2020-12-28_23h07.05.621,2_afc_fren,2020.2.3,MacIntel,60,,,right,0.921,0,1,1,10,1,,,,,,,,,,,,,,,,,,,,,,,
,,,,,,,stim/VC_09.wav,5fa0bf0afbd42f13cf56e987,2020-12-28_23h07.05.621,2_afc_fren,2020.2.3,MacIntel,60,,,right,0.645,0,2,2,8,1,,,,,,,,,,,,,,,,,,,,,,,
,,,,,,,stim/VC_05.wav,5fa0bf0afbd42f13cf56e987,2020-12-28_23h07.05.621,2_afc_fren,2020.2.3,MacIntel,60,,,left,1.006,0,3,3,4,1,,,,,,,,,,,,,,,,,,,,,,,
,,,,,,,stim/VC_01.wav,5fa0bf0afbd42f13cf56e987,2020-12-28_23h07.05.621,2_afc_fren,2020.2.3,MacIntel,60,,,left,0.723,0,4,4,0,1,,,,,,,,,,,,,,,,,,,,,,,
,,,,,,,stim/VC_08.wav,5fa0bf0afbd42f13cf56e987,2020-12-28_23h07.05.621,2_afc_fren,2020.2.3,MacIntel,60,,,right,0.573,0,5,5,7,1,,,,,,,,,,,,,,,,,,,,,,,
,,,,,,,stim/VC_03.wav,5fa0bf0afbd42f13cf56e987,2020-12-28_23h07.05.621,2_afc_fren,2020.2.3,MacIntel,60,,,left,1.129,0,6,6,2,1,,,,,,,,,,,,,,,,,,,,,,,
,,,,,,,stim/VC_02.wav,5fa0bf0afbd42f13cf56e987,2020-12-28_23h07.05.621,2_afc_fren,2020.2.3,MacIntel,60,,,left,0.646,0,7,7,1,1,,,,,,,,,,,,,,,,,,,,,,,
,,,,,,,stim/VC_07.wav,5fa0bf0afbd42f13cf56e987,2020-12-28_23h07.05.621,2_afc_fren,2020.2.3,MacIntel,60,,,right,0.729,0,8,8,6,1,,,,,,,,,,,,,,,,,,,,,,,
,,,,,,,stim/VC_04.wav,5fa0bf0afbd42f13cf56e987,2020-12-28_23h07.05.621,2_afc_fren,2020.2.3,MacIntel,60,,,right,3.502,0,9,9,3,1,,,,,,,,,,,,,,,,,,,,,,,
,,,,,,,stim/VC_10.wav,5fa0bf0afbd42f13cf56e987,2020-12-28_23h07.05.621,2_afc_fren,2020.2.3,MacIntel,60,,,right,0.792,0,10,10,9,1,,,,,,,,,,,,,,,,,,,,,,,
,,,,,,,stim/VC_11.wav,5fa0bf0afbd42f13cf56e987,2020-12-28_23h07.05.621,2_afc_fren,2020.2.3,MacIntel,60,,,right,0.595,1,0,11,10,1,,,,,,,,,,,,,,,,,,,,,,,
,,,,,,,stim/VC_03.wav,5fa0bf0afbd42f13cf56e987,2020-12-28_23h07.05.621,2_afc_fren,2020.2.3,MacIntel,60,,,left,0.607,1,1,12,2,1,,,,,,,,,,,,,,,,,,,,,,,
,,,,,,,stim/VC_08.wav,5fa0bf0afbd42f13cf56e987,2020-12-28_23h07.05.621,2_afc_fren,2020.2.3,MacIntel,60,,,right,1.776,1,2,13,7,1,,,,,,,,,,,,,,,,,,,,,,,
,,,,,,,stim/VC_05.wav,5fa0bf0afbd42f13cf56e987,2020-12-28_23h07.05.621,2_afc_fren,2020.2.3,MacIntel,60,,,left,1.404,1,3,14,4,1,,,,,,,,,,,,,,,,,,,,,,,
,,,,,,,stim/VC_06.wav,5fa0bf0afbd42f13cf56e987,2020-12-28_23h07.05.621,2_afc_fren,2020.2.3,MacIntel,60,,,left,0.694,1,4,15,5,1,,,,,,,,,,,,,,,,,,,,,,,
,,,,,,,stim/VC_01.wav,5fa0bf0afbd42f13cf56e987,2020-12-28_23h07.05.621,2_afc_fren,2020.2.3,MacIntel,60,,,left,0.777,1,5,16,0,1,,,,,,,,,,,,,,,,,,,,,,,
,,,,,,,stim/VC_09.wav,5fa0bf0afbd42f13cf56e987,2020-12-28_23h07.05.621,2_afc_fren,2020.2.3,MacIntel,60,,,right,0.552,1,6,17,8,1,,,,,,,,,,,,,,,,,,,,,,,
,,,,,,,stim/VC_02.wav,5fa0bf0afbd42f13cf56e987,2020-12-28_23h07.05.621,2_afc_fren,2020.2.3,MacIntel,60,,,left,0.91,1,7,18,1,1,,,,,,,,,,,,,,,,,,,,,,,
,,,,,,,stim/VC_10.wav,5fa0bf0afbd42f13cf56e987,2020-12-28_23h07.05.621,2_afc_fren,2020.2.3,MacIntel,60,,,right,0.651,1,8,19,9,1,,,,,,,,,,,,,,,,,,,,,,,
,,,,,,,stim/VC_07.wav,5fa0bf0afbd42f13cf56e987,2020-12-28_23h07.05.621,2_afc_fren,2020.2.3,MacIntel,60,,,left,1.073,1,9,20,6,1,,,,,,,,,,,,,,,,,,,,,,,
,,,,,,,stim/VC_04.wav,5fa0bf0afbd42f13cf56e987,2020-12-28_23h07.05.621,2_afc_fren,2020.2.3,MacIntel,60,,,left,0.839,1,10,21,3,1,,,,,,,,,,,,,,,,,,,,,,,
,,,,,,,stim/VC_01.wav,5fa0bf0afbd42f13cf56e987,2020-12-28_23h07.05.621,2_afc_fren,2020.2.3,MacIntel,60,,,left,1.463,2,0,22,0,1,,,,,,,,,,,,,,,,,,,,,,,
,,,,,,,stim/VC_11.wav,5fa0bf0afbd42f13cf56e987,2020-12-28_23h07.05.621,2_afc_fren,2020.2.3,MacIntel,60,,,right,0.594,2,1,23,10,1,,,,,,,,,,,,,,,,,,,,,,,
,,,,,,,stim/VC_05.wav,5fa0bf0afbd42f13cf56e987,2020-12-28_23h07.05.621,2_afc_fren,2020.2.3,MacIntel,60,,,left,0.953,2,2,24,4,1,,,,,,,,,,,,,,,,,,,,,,,
,,,,,,,stim/VC_10.wav,5fa0bf0afbd42f13cf56e987,2020-12-28_23h07.05.621,2_afc_fren,2020.2.3,MacIntel,60,,,right,1.042,2,3,25,9,1,,,,,,,,,,,,,,,,,,,,,,,
,,,,,,,stim/VC_09.wav,5fa0bf0afbd42f13cf56e987,2020-12-28_23h07.05.621,2_afc_fren,2020.2.3,MacIntel,60,,,right,0.809,2,4,26,8,1,,,,,,,,,,,,,,,,,,,,,,,
,,,,,,,stim/VC_06.wav,5fa0bf0afbd42f13cf56e987,2020-12-28_23h07.05.621,2_afc_fren,2020.2.3,MacIntel,60,,,left,1.06,2,5,27,5,1,,,,,,,,,,,,,,,,,,,,,,,
,,,,,,,stim/VC_07.wav,5fa0bf0afbd42f13cf56e987,2020-12-28_23h07.05.621,2_afc_fren,2020.2.3,MacIntel,60,,,left,4.01,2,6,28,6,1,,,,,,,,,,,,,,,,,,,,,,,
,,,,,,,stim/VC_04.wav,5fa0bf0afbd42f13cf56e987,2020-12-28_23h07.05.621,2_afc_fren,2020.2.3,MacIntel,60,,,left,1.018,2,7,29,3,1,,,,,,,,,,,,,,,,,,,,,,,
,,,,,,,stim/VC_08.wav,5fa0bf0afbd42f13cf56e987,2020-12-28_23h07.05.621,2_afc_fren,2020.2.3,MacIntel,60,,,right,0.528,2,8,30,7,1,,,,,,,,,,,,,,,,,,,,,,,
,,,,,,,stim/VC_02.wav,5fa0bf0afbd42f13cf56e987,2020-12-28_23h07.05.621,2_afc_fren,2020.2.3,MacIntel,60,,,left,0.842,2,9,31,1,1,,,,,,,,,,,,,,,,,,,,,,,
,,,,,,,stim/VC_03.wav,5fa0bf0afbd42f13cf56e987,2020-12-28_23h07.05.621,2_afc_fren,2020.2.3,MacIntel,60,,,left,0.619,2,10,32,2,1,,,,,,,,,,,,,,,,,,,,,,,
,,,,,,,stim/VC_02.wav,5fa0bf0afbd42f13cf56e987,2020-12-28_23h07.05.621,2_afc_fren,2020.2.3,MacIntel,60,,,left,0.854,,,,,,7,2.161,0,0,0,1,1,,,,,,,,,,,,,,,,
,,,,,,,stim/VC_09.wav,5fa0bf0afbd42f13cf56e987,2020-12-28_23h07.05.621,2_afc_fren,2020.2.3,MacIntel,60,,,right,0.609,,,,,,,,0,1,1,8,1,,,,,,,,,,,,,,,,
,,,,,,,stim/VC_03.wav,5fa0bf0afbd42f13cf56e987,2020-12-28_23h07.05.621,2_afc_fren,2020.2.3,MacIntel,60,,,left,0.56,,,,,,,,0,2,2,2,1,,,,,,,,,,,,,,,,
,,,,,,,stim/VC_06.wav,5fa0bf0afbd42f13cf56e987,2020-12-28_23h07.05.621,2_afc_fren,2020.2.3,MacIntel,60,,,left,0.842,,,,,,,,0,3,3,5,1,,,,,,,,,,,,,,,,
,,,,,,,stim/VC_10.wav,5fa0bf0afbd42f13cf56e987,2020-12-28_23h07.05.621,2_afc_fren,2020.2.3,MacIntel,60,,,right,0.543,,,,,,,,0,4,4,9,1,,,,,,,,,,,,,,,,
,,,,,,,stim/VC_11.wav,5fa0bf0afbd42f13cf56e987,2020-12-28_23h07.05.621,2_afc_fren,2020.2.3,MacIntel,60,,,right,0.519,,,,,,,,0,5,5,10,1,,,,,,,,,,,,,,,,
,,,,,,,stim/VC_01.wav,5fa0bf0afbd42f13cf56e987,2020-12-28_23h07.05.621,2_afc_fren,2020.2.3,MacIntel,60,,,left,0.616,,,,,,,,0,6,6,0,1,,,,,,,,,,,,,,,,
,,,,,,,stim/VC_08.wav,5fa0bf0afbd42f13cf56e987,2020-12-28_23h07.05.621,2_afc_fren,2020.2.3,MacIntel,60,,,right,0.675,,,,,,,,0,7,7,7,1,,,,,,,,,,,,,,,,
,,,,,,,stim/VC_05.wav,5fa0bf0afbd42f13cf56e987,2020-12-28_23h07.05.621,2_afc_fren,2020.2.3,MacIntel,60,,,left,0.745,,,,,,,,0,8,8,4,1,,,,,,,,,,,,,,,,
,,,,,,,stim/VC_04.wav,5fa0bf0afbd42f13cf56e987,2020-12-28_23h07.05.621,2_afc_fren,2020.2.3,MacIntel,60,,,left,0.753,,,,,,,,0,9,9,3,1,,,,,,,,,,,,,,,,
,,,,,,,stim/VC_07.wav,5fa0bf0afbd42f13cf56e987,2020-12-28_23h07.05.621,2_afc_fren,2020.2.3,MacIntel,60,,,left,0.676,,,,,,,,0,10,10,6,1,,,,,,,,,,,,,,,,
,,,,,,,stim/VC_02.wav,5fa0bf0afbd42f13cf56e987,2020-12-28_23h07.05.621,2_afc_fren,2020.2.3,MacIntel,60,,,right,0.504,,,,,,,,1,0,11,1,1,,,,,,,,,,,,,,,,
,,,,,,,stim/VC_01.wav,5fa0bf0afbd42f13cf56e987,2020-12-28_23h07.05.621,2_afc_fren,2020.2.3,MacIntel,60,,,left,0.763,,,,,,,,1,1,12,0,1,,,,,,,,,,,,,,,,
,,,,,,,stim/VC_06.wav,5fa0bf0afbd42f13cf56e987,2020-12-28_23h07.05.621,2_afc_fren,2020.2.3,MacIntel,60,,,left,0.709,,,,,,,,1,2,13,5,1,,,,,,,,,,,,,,,,
,,,,,,,stim/VC_07.wav,5fa0bf0afbd42f13cf56e987,2020-12-28_23h07.05.621,2_afc_fren,2020.2.3,MacIntel,60,,,left,1.094,,,,,,,,1,3,14,6,1,,,,,,,,,,,,,,,,
,,,,,,,stim/VC_11.wav,5fa0bf0afbd42f13cf56e987,2020-12-28_23h07.05.621,2_afc_fren,2020.2.3,MacIntel,60,,,right,0.827,,,,,,,,1,4,15,10,1,,,,,,,,,,,,,,,,
,,,,,,,stim/VC_08.wav,5fa0bf0afbd42f13cf56e987,2020-12-28_23h07.05.621,2_afc_fren,2020.2.3,MacIntel,60,,,right,1.727,,,,,,,,1,5,16,7,1,,,,,,,,,,,,,,,,
,,,,,,,stim/VC_10.wav,5fa0bf0afbd42f13cf56e987,2020-12-28_23h07.05.621,2_afc_fren,2020.2.3,MacIntel,60,,,right,1.235,,,,,,,,1,6,17,9,1,,,,,,,,,,,,,,,,
,,,,,,,stim/VC_05.wav,5fa0bf0afbd42f13cf56e987,2020-12-28_23h07.05.621,2_afc_fren,2020.2.3,MacIntel,60,,,left,1.521,,,,,,,,1,7,18,4,1,,,,,,,,,,,,,,,,
,,,,,,,stim/VC_09.wav,5fa0bf0afbd42f13cf56e987,2020-12-28_23h07.05.621,2_afc_fren,2020.2.3,MacIntel,60,,,right,1.21,,,,,,,,1,8,19,8,1,,,,,,,,,,,,,,,,
,,,,,,,stim/VC_04.wav,5fa0bf0afbd42f13cf56e987,2020-12-28_23h07.05.621,2_afc_fren,2020.2.3,MacIntel,60,,,left,1.309,,,,,,,,1,9,20,3,1,,,,,,,,,,,,,,,,
,,,,,,,stim/VC_03.wav,5fa0bf0afbd42f13cf56e987,2020-12-28_23h07.05.621,2_afc_fren,2020.2.3,MacIntel,60,,,left,1.006,,,,,,,,1,10,21,2,1,,,,,,,,,,,,,,,,
,,,,,,,stim2/pa+50.wav,5fa0bf0afbd42f13cf56e987,2020-12-28_23h07.05.621,2_afc_fren,2020.2.3,MacIntel,60,,,,,,,,,,,,,,,,,left,3.732,0,0,0,9,1,,,,,,,,,
,,,,,,,stim2/pa+20.wav,5fa0bf0afbd42f13cf56e987,2020-12-28_23h07.05.621,2_afc_fren,2020.2.3,MacIntel,60,,,,,,,,,,,,,,,,,left,1.401,0,1,1,3,1,,,,,,,,,
,,,,,,,stim2/pa-25.wav,5fa0bf0afbd42f13cf56e987,2020-12-28_23h07.05.621,2_afc_fren,2020.2.3,MacIntel,60,,,,,,,,,,,,,,,,,right,0.99,0,2,2,14,1,,,,,,,,,
,,,,,,,stim2/pa+25.wav,5fa0bf0afbd42f13cf56e987,2020-12-28_23h07.05.621,2_afc_fren,2020.2.3,MacIntel,60,,,,,,,,,,,,,,,,,right,0.79,0,3,3,4,1,,,,,,,,,
,,,,,,,stim2/pa-30.wav,5fa0bf0afbd42f13cf56e987,2020-12-28_23h07.05.621,2_afc_fren,2020.2.3,MacIntel,60,,,,,,,,,,,,,,,,,right,0.691,0,4,4,15,1,,,,,,,,,
,,,,,,,stim2/pa-35.wav,5fa0bf0afbd42f13cf56e987,2020-12-28_23h07.05.621,2_afc_fren,2020.2.3,MacIntel,60,,,,,,,,,,,,,,,,,right,0.519,0,5,5,16,1,,,,,,,,,
,,,,,,,stim2/pa+15.wav,5fa0bf0afbd42f13cf56e987,2020-12-28_23h07.05.621,2_afc_fren,2020.2.3,MacIntel,60,,,,,,,,,,,,,,,,,left,1.126,0,6,6,2,1,,,,,,,,,
,,,,,,,stim2/pa-10.wav,5fa0bf0afbd42f13cf56e987,2020-12-28_23h07.05.621,2_afc_fren,2020.2.3,MacIntel,60,,,,,,,,,,,,,,,,,right,1.586,0,7,7,11,1,,,,,,,,,
,,,,,,,stim2/pa+45.wav,5fa0bf0afbd42f13cf56e987,2020-12-28_23h07.05.621,2_afc_fren,2020.2.3,MacIntel,60,,,,,,,,,,,,,,,,,right,0.787,0,8,8,8,1,,,,,,,,,
,,,,,,,stim2/pa-15.wav,5fa0bf0afbd42f13cf56e987,2020-12-28_23h07.05.621,2_afc_fren,2020.2.3,MacIntel,60,,,,,,,,,,,,,,,,,right,0.557,0,9,9,12,1,,,,,,,,,
,,,,,,,stim2/pa+40.wav,5fa0bf0afbd42f13cf56e987,2020-12-28_23h07.05.621,2_afc_fren,2020.2.3,MacIntel,60,,,,,,,,,,,,,,,,,right,0.657,0,10,10,7,1,,,,,,,,,
,,,,,,,stim2/pa+35.wav,5fa0bf0afbd42f13cf56e987,2020-12-28_23h07.05.621,2_afc_fren,2020.2.3,MacIntel,60,,,,,,,,,,,,,,,,,right,0.771,0,11,11,6,1,,,,,,,,,
,,,,,,,stim2/pa-05.wav,5fa0bf0afbd42f13cf56e987,2020-12-28_23h07.05.621,2_afc_fren,2020.2.3,MacIntel,60,,,,,,,,,,,,,,,,,right,0.671,0,12,12,10,1,,,,,,,,,
,,,,,,,stim2/pa+30.wav,5fa0bf0afbd42f13cf56e987,2020-12-28_23h07.05.621,2_afc_fren,2020.2.3,MacIntel,60,,,,,,,,,,,,,,,,,right,1.094,0,13,13,5,1,,,,,,,,,
,,,,,,,stim2/pa-20.wav,5fa0bf0afbd42f13cf56e987,2020-12-28_23h07.05.621,2_afc_fren,2020.2.3,MacIntel,60,,,,,,,,,,,,,,,,,right,0.646,0,14,14,13,1,,,,,,,,,
,,,,,,,stim2/pa+10.wav,5fa0bf0afbd42f13cf56e987,2020-12-28_23h07.05.621,2_afc_fren,2020.2.3,MacIntel,60,,,,,,,,,,,,,,,,,right,0.662,0,15,15,1,1,,,,,,,,,
,,,,,,,stim2/pa+05.wav,5fa0bf0afbd42f13cf56e987,2020-12-28_23h07.05.621,2_afc_fren,2020.2.3,MacIntel,60,,,,,,,,,,,,,,,,,right,0.501,0,16,16,0,1,,,,,,,,,
,,,,,,,stim2/pa+20.wav,5fa0bf0afbd42f13cf56e987,2020-12-28_23h07.05.621,2_afc_fren,2020.2.3,MacIntel,60,,,,,,,,,,,,,,,,,right,0.419,1,0,17,3,1,,,,,,,,,
,,,,,,,stim2/pa+35.wav,5fa0bf0afbd42f13cf56e987,2020-12-28_23h07.05.621,2_afc_fren,2020.2.3,MacIntel,60,,,,,,,,,,,,,,,,,right,0.867,1,1,18,6,1,,,,,,,,,
,,,,,,,stim2/pa-35.wav,5fa0bf0afbd42f13cf56e987,2020-12-28_23h07.05.621,2_afc_fren,2020.2.3,MacIntel,60,,,,,,,,,,,,,,,,,right,0.942,1,2,19,16,1,,,,,,,,,
,,,,,,,stim2/pa+05.wav,5fa0bf0afbd42f13cf56e987,2020-12-28_23h07.05.621,2_afc_fren,2020.2.3,MacIntel,60,,,,,,,,,,,,,,,,,right,1.057,1,3,20,0,1,,,,,,,,,
,,,,,,,stim2/pa+45.wav,5fa0bf0afbd42f13cf56e987,2020-12-28_23h07.05.621,2_afc_fren,2020.2.3,MacIntel,60,,,,,,,,,,,,,,,,,right,1.293,1,4,21,8,1,,,,,,,,,
,,,,,,,stim2/pa+10.wav,5fa0bf0afbd42f13cf56e987,2020-12-28_23h07.05.621,2_afc_fren,2020.2.3,MacIntel,60,,,,,,,,,,,,,,,,,right,0.919,1,5,22,1,1,,,,,,,,,
,,,,,,,stim2/pa+30.wav,5fa0bf0afbd42f13cf56e987,2020-12-28_23h07.05.621,2_afc_fren,2020.2.3,MacIntel,60,,,,,,,,,,,,,,,,,right,1.027,1,6,23,5,1,,,,,,,,,
,,,,,,,stim2/pa+50.wav,5fa0bf0afbd42f13cf56e987,2020-12-28_23h07.05.621,2_afc_fren,2020.2.3,MacIntel,60,,,,,,,,,,,,,,,,,right,1.111,1,7,24,9,1,,,,,,,,,
,,,,,,,stim2/pa+15.wav,5fa0bf0afbd42f13cf56e987,2020-12-28_23h07.05.621,2_afc_fren,2020.2.3,MacIntel,60,,,,,,,,,,,,,,,,,right,0.423,1,8,25,2,1,,,,,,,,,
,,,,,,,stim2/pa-15.wav,5fa0bf0afbd42f13cf56e987,2020-12-28_23h07.05.621,2_afc_fren,2020.2.3,MacIntel,60,,,,,,,,,,,,,,,,,right,0.542,1,9,26,12,1,,,,,,,,,
,,,,,,,stim2/pa-05.wav,5fa0bf0afbd42f13cf56e987,2020-12-28_23h07.05.621,2_afc_fren,2020.2.3,MacIntel,60,,,,,,,,,,,,,,,,,right,0.486,1,10,27,10,1,,,,,,,,,
,,,,,,,stim2/pa+25.wav,5fa0bf0afbd42f13cf56e987,2020-12-28_23h07.05.621,2_afc_fren,2020.2.3,MacIntel,60,,,,,,,,,,,,,,,,,right,0.592,1,11,28,4,1,,,,,,,,,
,,,,,,,stim2/pa-20.wav,5fa0bf0afbd42f13cf56e987,2020-12-28_23h07.05.621,2_afc_fren,2020.2.3,MacIntel,60,,,,,,,,,,,,,,,,,right,0.686,1,12,29,13,1,,,,,,,,,
,,,,,,,stim2/pa-30.wav,5fa0bf0afbd42f13cf56e987,2020-12-28_23h07.05.621,2_afc_fren,2020.2.3,MacIntel,60,,,,,,,,,,,,,,,,,right,0.744,1,13,30,15,1,,,,,,,,,
,,,,,,,stim2/pa+40.wav,5fa0bf0afbd42f13cf56e987,2020-12-28_23h07.05.621,2_afc_fren,2020.2.3,MacIntel,60,,,,,,,,,,,,,,,,,right,0.606,1,14,31,7,1,,,,,,,,,
,,,,,,,stim2/pa-10.wav,5fa0bf0afbd42f13cf56e987,2020-12-28_23h07.05.621,2_afc_fren,2020.2.3,MacIntel,60,,,,,,,,,,,,,,,,,right,0.67,1,15,32,11,1,,,,,,,,,
,,,,,,,stim2/pa-25.wav,5fa0bf0afbd42f13cf56e987,2020-12-28_23h07.05.621,2_afc_fren,2020.2.3,MacIntel,60,,,,,,,,,,,,,,,,,right,0.724,1,16,33,14,1,,,,,,,,,
,,,,,,,stim2/pa-20.wav,5fa0bf0afbd42f13cf56e987,2020-12-28_23h07.05.621,2_afc_fren,2020.2.3,MacIntel,60,,,,,,,,,,,,,,,,,right,0.571,2,0,34,13,1,,,,,,,,,
,,,,,,,stim2/pa+10.wav,5fa0bf0afbd42f13cf56e987,2020-12-28_23h07.05.621,2_afc_fren,2020.2.3,MacIntel,60,,,,,,,,,,,,,,,,,right,0.971,2,1,35,1,1,,,,,,,,,
,,,,,,,stim2/pa+45.wav,5fa0bf0afbd42f13cf56e987,2020-12-28_23h07.05.621,2_afc_fren,2020.2.3,MacIntel,60,,,,,,,,,,,,,,,,,right,0.711,2,2,36,8,1,,,,,,,,,
,,,,,,,stim2/pa-35.wav,5fa0bf0afbd42f13cf56e987,2020-12-28_23h07.05.621,2_afc_fren,2020.2.3,MacIntel,60,,,,,,,,,,,,,,,,,right,0.689,2,3,37,16,1,,,,,,,,,
,,,,,,,stim2/pa-25.wav,5fa0bf0afbd42f13cf56e987,2020-12-28_23h07.05.621,2_afc_fren,2020.2.3,MacIntel,60,,,,,,,,,,,,,,,,,right,0.788,2,4,38,14,1,,,,,,,,,
,,,,,,,stim2/pa-05.wav,5fa0bf0afbd42f13cf56e987,2020-12-28_23h07.05.621,2_afc_fren,2020.2.3,MacIntel,60,,,,,,,,,,,,,,,,,right,0.592,2,5,39,10,1,,,,,,,,,
,,,,,,,stim2/pa+05.wav,5fa0bf0afbd42f13cf56e987,2020-12-28_23h07.05.621,2_afc_fren,2020.2.3,MacIntel,60,,,,,,,,,,,,,,,,,right,0.809,2,6,40,0,1,,,,,,,,,
,,,,,,,stim2/pa+15.wav,5fa0bf0afbd42f13cf56e987,2020-12-28_23h07.05.621,2_afc_fren,2020.2.3,MacIntel,60,,,,,,,,,,,,,,,,,right,0.61,2,7,41,2,1,,,,,,,,,
,,,,,,,stim2/pa-10.wav,5fa0bf0afbd42f13cf56e987,2020-12-28_23h07.05.621,2_afc_fren,2020.2.3,MacIntel,60,,,,,,,,,,,,,,,,,right,0.708,2,8,42,11,1,,,,,,,,,
,,,,,,,stim2/pa+50.wav,5fa0bf0afbd42f13cf56e987,2020-12-28_23h07.05.621,2_afc_fren,2020.2.3,MacIntel,60,,,,,,,,,,,,,,,,,right,0.753,2,9,43,9,1,,,,,,,,,
,,,,,,,stim2/pa+35.wav,5fa0bf0afbd42f13cf56e987,2020-12-28_23h07.05.621,2_afc_fren,2020.2.3,MacIntel,60,,,,,,,,,,,,,,,,,right,0.72,2,10,44,6,1,,,,,,,,,
,,,,,,,stim2/pa+40.wav,5fa0bf0afbd42f13cf56e987,2020-12-28_23h07.05.621,2_afc_fren,2020.2.3,MacIntel,60,,,,,,,,,,,,,,,,,right,0.69,2,11,45,7,1,,,,,,,,,
,,,,,,,stim2/pa+30.wav,5fa0bf0afbd42f13cf56e987,2020-12-28_23h07.05.621,2_afc_fren,2020.2.3,MacIntel,60,,,,,,,,,,,,,,,,,right,0.54,2,12,46,5,1,,,,,,,,,
,,,,,,,stim2/pa+20.wav,5fa0bf0afbd42f13cf56e987,2020-12-28_23h07.05.621,2_afc_fren,2020.2.3,MacIntel,60,,,,,,,,,,,,,,,,,right,0.638,2,13,47,3,1,,,,,,,,,
,,,,,,,stim2/pa-30.wav,5fa0bf0afbd42f13cf56e987,2020-12-28_23h07.05.621,2_afc_fren,2020.2.3,MacIntel,60,,,,,,,,,,,,,,,,,right,0.691,2,14,48,15,1,,,,,,,,,
,,,,,,,stim2/pa-15.wav,5fa0bf0afbd42f13cf56e987,2020-12-28_23h07.05.621,2_afc_fren,2020.2.3,MacIntel,60,,,,,,,,,,,,,,,,,right,0.913,2,15,49,12,1,,,,,,,,,
,,,,,,,stim2/pa+25.wav,5fa0bf0afbd42f13cf56e987,2020-12-28_23h07.05.621,2_afc_fren,2020.2.3,MacIntel,60,,,,,,,,,,,,,,,,,right,1.542,2,16,50,4,1,,,,,,,,,
,,,,,,,stim2/pa-20.wav,5fa0bf0afbd42f13cf56e987,2020-12-28_23h07.05.621,2_afc_fren,2020.2.3,MacIntel,60,,,,,,,,,,,,,,,,,right,2.328,,,,,,z,2.327,0,0,0,13,1,,
,,,,,,,stim2/pa+20.wav,5fa0bf0afbd42f13cf56e987,2020-12-28_23h07.05.621,2_afc_fren,2020.2.3,MacIntel,60,,,,,,,,,,,,,,,,,right,0.655,,,,,,,,0,1,1,3,1,,
,,,,,,,stim2/pa-35.wav,5fa0bf0afbd42f13cf56e987,2020-12-28_23h07.05.621,2_afc_fren,2020.2.3,MacIntel,60,,,,,,,,,,,,,,,,,right,0.621,,,,,,,,0,2,2,16,1,,
,,,,,,,stim2/pa-10.wav,5fa0bf0afbd42f13cf56e987,2020-12-28_23h07.05.621,2_afc_fren,2020.2.3,MacIntel,60,,,,,,,,,,,,,,,,,right,0.52,,,,,,,,0,3,3,11,1,,
,,,,,,,stim2/pa-15.wav,5fa0bf0afbd42f13cf56e987,2020-12-28_23h07.05.621,2_afc_fren,2020.2.3,MacIntel,60,,,,,,,,,,,,,,,,,right,0.546,,,,,,,,0,4,4,12,1,,
,,,,,,,stim2/pa-30.wav,5fa0bf0afbd42f13cf56e987,2020-12-28_23h07.05.621,2_afc_fren,2020.2.3,MacIntel,60,,,,,,,,,,,,,,,,,right,0.625,,,,,,,,0,5,5,15,1,,
,,,,,,,stim2/pa+25.wav,5fa0bf0afbd42f13cf56e987,2020-12-28_23h07.05.621,2_afc_fren,2020.2.3,MacIntel,60,,,,,,,,,,,,,,,,,right,0.446,,,,,,,,0,6,6,4,1,,
,,,,,,,stim2/pa+05.wav,5fa0bf0afbd42f13cf56e987,2020-12-28_23h07.05.621,2_afc_fren,2020.2.3,MacIntel,60,,,,,,,,,,,,,,,,,right,0.516,,,,,,,,0,7,7,0,1,,
,,,,,,,stim2/pa+30.wav,5fa0bf0afbd42f13cf56e987,2020-12-28_23h07.05.621,2_afc_fren,2020.2.3,MacIntel,60,,,,,,,,,,,,,,,,,right,0.597,,,,,,,,0,8,8,5,1,,
,,,,,,,stim2/pa+40.wav,5fa0bf0afbd42f13cf56e987,2020-12-28_23h07.05.621,2_afc_fren,2020.2.3,MacIntel,60,,,,,,,,,,,,,,,,,right,0.479,,,,,,,,0,9,9,7,1,,
,,,,,,,stim2/pa+10.wav,5fa0bf0afbd42f13cf56e987,2020-12-28_23h07.05.621,2_afc_fren,2020.2.3,MacIntel,60,,,,,,,,,,,,,,,,,right,0.411,,,,,,,,0,10,10,1,1,,
,,,,,,,stim2/pa+45.wav,5fa0bf0afbd42f13cf56e987,2020-12-28_23h07.05.621,2_afc_fren,2020.2.3,MacIntel,60,,,,,,,,,,,,,,,,,right,0.574,,,,,,,,0,11,11,8,1,,
,,,,,,,stim2/pa+50.wav,5fa0bf0afbd42f13cf56e987,2020-12-28_23h07.05.621,2_afc_fren,2020.2.3,MacIntel,60,,,,,,,,,,,,,,,,,right,0.777,,,,,,,,0,12,12,9,1,,
,,,,,,,stim2/pa-05.wav,5fa0bf0afbd42f13cf56e987,2020-12-28_23h07.05.621,2_afc_fren,2020.2.3,MacIntel,60,,,,,,,,,,,,,,,,,right,0.567,,,,,,,,0,13,13,10,1,,
,,,,,,,stim2/pa+35.wav,5fa0bf0afbd42f13cf56e987,2020-12-28_23h07.05.621,2_afc_fren,2020.2.3,MacIntel,60,,,,,,,,,,,,,,,,,right,0.609,,,,,,,,0,14,14,6,1,,
,,,,,,,stim2/pa-25.wav,5fa0bf0afbd42f13cf56e987,2020-12-28_23h07.05.621,2_afc_fren,2020.2.3,MacIntel,60,,,,,,,,,,,,,,,,,right,0.688,,,,,,,,0,15,15,14,1,,
,,,,,,,stim2/pa+15.wav,5fa0bf0afbd42f13cf56e987,2020-12-28_23h07.05.621,2_afc_fren,2020.2.3,MacIntel,60,,,,,,,,,,,,,,,,,right,0.594,,,,,,,,0,16,16,2,1,,
,,,,,,,stim2/pa+05.wav,5fa0bf0afbd42f13cf56e987,2020-12-28_23h07.05.621,2_afc_fren,2020.2.3,MacIntel,60,,,,,,,,,,,,,,,,,right,0.571,,,,,,,,1,0,17,0,1,,
,,,,,,,stim2/pa-25.wav,5fa0bf0afbd42f13cf56e987,2020-12-28_23h07.05.621,2_afc_fren,2020.2.3,MacIntel,60,,,,,,,,,,,,,,,,,right,0.635,,,,,,,,1,1,18,14,1,,
,,,,,,,stim2/pa+50.wav,5fa0bf0afbd42f13cf56e987,2020-12-28_23h07.05.621,2_afc_fren,2020.2.3,MacIntel,60,,,,,,,,,,,,,,,,,right,0.863,,,,,,,,1,2,19,9,1,,
,,,,,,,stim2/pa+45.wav,5fa0bf0afbd42f13cf56e987,2020-12-28_23h07.05.621,2_afc_fren,2020.2.3,MacIntel,60,,,,,,,,,,,,,,,,,right,0.892,,,,,,,,1,3,20,8,1,,
,,,,,,,stim2/pa-15.wav,5fa0bf0afbd42f13cf56e987,2020-12-28_23h07.05.621,2_afc_fren,2020.2.3,MacIntel,60,,,,,,,,,,,,,,,,,right,0.769,,,,,,,,1,4,21,12,1,,
,,,,,,,stim2/pa+35.wav,5fa0bf0afbd42f13cf56e987,2020-12-28_23h07.05.621,2_afc_fren,2020.2.3,MacIntel,60,,,,,,,,,,,,,,,,,right,0.912,,,,,,,,1,5,22,6,1,,
,,,,,,,stim2/pa-20.wav,5fa0bf0afbd42f13cf56e987,2020-12-28_23h07.05.621,2_afc_fren,2020.2.3,MacIntel,60,,,,,,,,,,,,,,,,,right,1.054,,,,,,,,1,6,23,13,1,,
,,,,,,,stim2/pa+40.wav,5fa0bf0afbd42f13cf56e987,2020-12-28_23h07.05.621,2_afc_fren,2020.2.3,MacIntel,60,,,,,,,,,,,,,,,,,right,0.76,,,,,,,,1,7,24,7,1,,
,,,,,,,stim2/pa+10.wav,5fa0bf0afbd42f13cf56e987,2020-12-28_23h07.05.621,2_afc_fren,2020.2.3,MacIntel,60,,,,,,,,,,,,,,,,,right,0.755,,,,,,,,1,8,25,1,1,,
,,,,,,,stim2/pa-35.wav,5fa0bf0afbd42f13cf56e987,2020-12-28_23h07.05.621,2_afc_fren,2020.2.3,MacIntel,60,,,,,,,,,,,,,,,,,right,0.705,,,,,,,,1,9,26,16,1,,
,,,,,,,stim2/pa+30.wav,5fa0bf0afbd42f13cf56e987,2020-12-28_23h07.05.621,2_afc_fren,2020.2.3,MacIntel,60,,,,,,,,,,,,,,,,,right,0.444,,,,,,,,1,10,27,5,1,,
,,,,,,,stim2/pa-05.wav,5fa0bf0afbd42f13cf56e987,2020-12-28_23h07.05.621,2_afc_fren,2020.2.3,MacIntel,60,,,,,,,,,,,,,,,,,right,0.544,,,,,,,,1,11,28,10,1,,
,,,,,,,stim2/pa+15.wav,5fa0bf0afbd42f13cf56e987,2020-12-28_23h07.05.621,2_afc_fren,2020.2.3,MacIntel,60,,,,,,,,,,,,,,,,,right,1.12,,,,,,,,1,12,29,2,1,,
,,,,,,,stim2/pa-10.wav,5fa0bf0afbd42f13cf56e987,2020-12-28_23h07.05.621,2_afc_fren,2020.2.3,MacIntel,60,,,,,,,,,,,,,,,,,right,0.753,,,,,,,,1,13,30,11,1,,
,,,,,,,stim2/pa+25.wav,5fa0bf0afbd42f13cf56e987,2020-12-28_23h07.05.621,2_afc_fren,2020.2.3,MacIntel,60,,,,,,,,,,,,,,,,,right,2.669,,,,,,,,1,14,31,4,1,,
,,,,,,,stim2/pa+20.wav,5fa0bf0afbd42f13cf56e987,2020-12-28_23h07.05.621,2_afc_fren,2020.2.3,MacIntel,60,,,,,,,,,,,,,,,,,right,0.896,,,,,,,,1,15,32,3,1,,
,,,,,,,stim2/pa-30.wav,5fa0bf0afbd42f13cf56e987,2020-12-28_23h07.05.621,2_afc_fren,2020.2.3,MacIntel,60,,,,,,,,,,,,,,,,,right,0.624,,,,,,,,1,16,33,15,1,,
,,,,,,,,5fa0bf0afbd42f13cf56e987,2020-12-28_23h07.05.621,2_afc_fren,2020.2.3,MacIntel,60,,,,,,,,,,,,,,,,,,,,,,,,,,,,,,,space,19.029
