resp.keys,resp.rt,trials.thisRepN,trials.thisTrialN,trials.thisN,trials.thisIndex,trials.ran,stimuli,participant,date,expName,psychopyVersion,OS,frameRate,gotResponse.keys,gotResponse.rt,resp_2.keys,resp_2.rt,trials_2.thisRepN,trials_2.thisTrialN,trials_2.thisN,trials_2.thisIndex,trials_2.ran,key_resp_3.keys,key_resp_3.rt,trials_4.thisRepN,trials_4.thisTrialN,trials_4.thisN,trials_4.thisIndex,trials_4.ran,resp_3.keys,resp_3.rt,trials_3.thisRepN,trials_3.thisTrialN,trials_3.thisN,trials_3.thisIndex,trials_3.ran,key_resp_2.keys,key_resp_2.rt,trials_5.thisRepN,trials_5.thisTrialN,trials_5.thisN,trials_5.thisIndex,trials_5.ran,key_resp.keys,key_resp.rt
left,5.74633,0,0,0,0,1,stim/VC_01.wav,5fac89c216b5ae293eb9cfd9,2020-12-22_08h24.26.024,Spanish_step2,2020.2.3,MacIntel,60,,,,,,,,,,,,,,,,,,,,,,,,,,,,,,,,
right,3.663435,0,1,1,1,1,stim/VC_11.wav,5fac89c216b5ae293eb9cfd9,2020-12-22_08h24.26.024,Spanish_step2,2020.2.3,MacIntel,60,,,,,,,,,,,,,,,,,,,,,,,,,,,,,,,,
,,,,,,,stim/VC_08.wav,5fac89c216b5ae293eb9cfd9,2020-12-22_08h24.26.024,Spanish_step2,2020.2.3,MacIntel,60,space,2.048915,right,4.239745,0,0,0,7,1,,,,,,,,,,,,,,,,,,,,,,,
,,,,,,,stim/VC_02.wav,5fac89c216b5ae293eb9cfd9,2020-12-22_08h24.26.024,Spanish_step2,2020.2.3,MacIntel,60,,,left,0.89888,0,1,1,1,1,,,,,,,,,,,,,,,,,,,,,,,
,,,,,,,stim/VC_09.wav,5fac89c216b5ae293eb9cfd9,2020-12-22_08h24.26.024,Spanish_step2,2020.2.3,MacIntel,60,,,right,0.718735,0,2,2,8,1,,,,,,,,,,,,,,,,,,,,,,,
,,,,,,,stim/VC_05.wav,5fac89c216b5ae293eb9cfd9,2020-12-22_08h24.26.024,Spanish_step2,2020.2.3,MacIntel,60,,,right,1.285545,0,3,3,4,1,,,,,,,,,,,,,,,,,,,,,,,
,,,,,,,stim/VC_03.wav,5fac89c216b5ae293eb9cfd9,2020-12-22_08h24.26.024,Spanish_step2,2020.2.3,MacIntel,60,,,left,1.2719,0,4,4,2,1,,,,,,,,,,,,,,,,,,,,,,,
,,,,,,,stim/VC_01.wav,5fac89c216b5ae293eb9cfd9,2020-12-22_08h24.26.024,Spanish_step2,2020.2.3,MacIntel,60,,,left,0.75038,0,5,5,0,1,,,,,,,,,,,,,,,,,,,,,,,
,,,,,,,stim/VC_07.wav,5fac89c216b5ae293eb9cfd9,2020-12-22_08h24.26.024,Spanish_step2,2020.2.3,MacIntel,60,,,right,3.280115,0,6,6,6,1,,,,,,,,,,,,,,,,,,,,,,,
,,,,,,,stim/VC_06.wav,5fac89c216b5ae293eb9cfd9,2020-12-22_08h24.26.024,Spanish_step2,2020.2.3,MacIntel,60,,,right,1.75998,0,7,7,5,1,,,,,,,,,,,,,,,,,,,,,,,
,,,,,,,stim/VC_10.wav,5fac89c216b5ae293eb9cfd9,2020-12-22_08h24.26.024,Spanish_step2,2020.2.3,MacIntel,60,,,right,0.872485,0,8,8,9,1,,,,,,,,,,,,,,,,,,,,,,,
,,,,,,,stim/VC_11.wav,5fac89c216b5ae293eb9cfd9,2020-12-22_08h24.26.024,Spanish_step2,2020.2.3,MacIntel,60,,,right,0.926985,0,9,9,10,1,,,,,,,,,,,,,,,,,,,,,,,
,,,,,,,stim/VC_04.wav,5fac89c216b5ae293eb9cfd9,2020-12-22_08h24.26.024,Spanish_step2,2020.2.3,MacIntel,60,,,left,1.36085,0,10,10,3,1,,,,,,,,,,,,,,,,,,,,,,,
,,,,,,,stim/VC_02.wav,5fac89c216b5ae293eb9cfd9,2020-12-22_08h24.26.024,Spanish_step2,2020.2.3,MacIntel,60,,,left,0.575925,1,0,11,1,1,,,,,,,,,,,,,,,,,,,,,,,
,,,,,,,stim/VC_08.wav,5fac89c216b5ae293eb9cfd9,2020-12-22_08h24.26.024,Spanish_step2,2020.2.3,MacIntel,60,,,right,0.8513,1,1,12,7,1,,,,,,,,,,,,,,,,,,,,,,,
,,,,,,,stim/VC_11.wav,5fac89c216b5ae293eb9cfd9,2020-12-22_08h24.26.024,Spanish_step2,2020.2.3,MacIntel,60,,,right,0.62987,1,2,13,10,1,,,,,,,,,,,,,,,,,,,,,,,
,,,,,,,stim/VC_04.wav,5fac89c216b5ae293eb9cfd9,2020-12-22_08h24.26.024,Spanish_step2,2020.2.3,MacIntel,60,,,left,0.796945,1,3,14,3,1,,,,,,,,,,,,,,,,,,,,,,,
,,,,,,,stim/VC_10.wav,5fac89c216b5ae293eb9cfd9,2020-12-22_08h24.26.024,Spanish_step2,2020.2.3,MacIntel,60,,,right,0.61436,1,4,15,9,1,,,,,,,,,,,,,,,,,,,,,,,
,,,,,,,stim/VC_05.wav,5fac89c216b5ae293eb9cfd9,2020-12-22_08h24.26.024,Spanish_step2,2020.2.3,MacIntel,60,,,left,0.90916,1,5,16,4,1,,,,,,,,,,,,,,,,,,,,,,,
,,,,,,,stim/VC_09.wav,5fac89c216b5ae293eb9cfd9,2020-12-22_08h24.26.024,Spanish_step2,2020.2.3,MacIntel,60,,,right,0.628375,1,6,17,8,1,,,,,,,,,,,,,,,,,,,,,,,
,,,,,,,stim/VC_06.wav,5fac89c216b5ae293eb9cfd9,2020-12-22_08h24.26.024,Spanish_step2,2020.2.3,MacIntel,60,,,right,1.112155,1,7,18,5,1,,,,,,,,,,,,,,,,,,,,,,,
,,,,,,,stim/VC_03.wav,5fac89c216b5ae293eb9cfd9,2020-12-22_08h24.26.024,Spanish_step2,2020.2.3,MacIntel,60,,,left,0.77071,1,8,19,2,1,,,,,,,,,,,,,,,,,,,,,,,
,,,,,,,stim/VC_07.wav,5fac89c216b5ae293eb9cfd9,2020-12-22_08h24.26.024,Spanish_step2,2020.2.3,MacIntel,60,,,right,2.72292,1,9,20,6,1,,,,,,,,,,,,,,,,,,,,,,,
,,,,,,,stim/VC_01.wav,5fac89c216b5ae293eb9cfd9,2020-12-22_08h24.26.024,Spanish_step2,2020.2.3,MacIntel,60,,,left,0.7835,1,10,21,0,1,,,,,,,,,,,,,,,,,,,,,,,
,,,,,,,stim/VC_09.wav,5fac89c216b5ae293eb9cfd9,2020-12-22_08h24.26.024,Spanish_step2,2020.2.3,MacIntel,60,,,right,0.713495,2,0,22,8,1,,,,,,,,,,,,,,,,,,,,,,,
,,,,,,,stim/VC_01.wav,5fac89c216b5ae293eb9cfd9,2020-12-22_08h24.26.024,Spanish_step2,2020.2.3,MacIntel,60,,,left,0.671725,2,1,23,0,1,,,,,,,,,,,,,,,,,,,,,,,
,,,,,,,stim/VC_10.wav,5fac89c216b5ae293eb9cfd9,2020-12-22_08h24.26.024,Spanish_step2,2020.2.3,MacIntel,60,,,right,0.74999,2,2,24,9,1,,,,,,,,,,,,,,,,,,,,,,,
,,,,,,,stim/VC_08.wav,5fac89c216b5ae293eb9cfd9,2020-12-22_08h24.26.024,Spanish_step2,2020.2.3,MacIntel,60,,,right,0.794065,2,3,25,7,1,,,,,,,,,,,,,,,,,,,,,,,
,,,,,,,stim/VC_11.wav,5fac89c216b5ae293eb9cfd9,2020-12-22_08h24.26.024,Spanish_step2,2020.2.3,MacIntel,60,,,right,0.866285,2,4,26,10,1,,,,,,,,,,,,,,,,,,,,,,,
,,,,,,,stim/VC_04.wav,5fac89c216b5ae293eb9cfd9,2020-12-22_08h24.26.024,Spanish_step2,2020.2.3,MacIntel,60,,,left,1.37212,2,5,27,3,1,,,,,,,,,,,,,,,,,,,,,,,
,,,,,,,stim/VC_05.wav,5fac89c216b5ae293eb9cfd9,2020-12-22_08h24.26.024,Spanish_step2,2020.2.3,MacIntel,60,,,left,1.586145,2,6,28,4,1,,,,,,,,,,,,,,,,,,,,,,,
,,,,,,,stim/VC_03.wav,5fac89c216b5ae293eb9cfd9,2020-12-22_08h24.26.024,Spanish_step2,2020.2.3,MacIntel,60,,,left,0.664325,2,7,29,2,1,,,,,,,,,,,,,,,,,,,,,,,
,,,,,,,stim/VC_07.wav,5fac89c216b5ae293eb9cfd9,2020-12-22_08h24.26.024,Spanish_step2,2020.2.3,MacIntel,60,,,right,0.877415,2,8,30,6,1,,,,,,,,,,,,,,,,,,,,,,,
,,,,,,,stim/VC_06.wav,5fac89c216b5ae293eb9cfd9,2020-12-22_08h24.26.024,Spanish_step2,2020.2.3,MacIntel,60,,,right,0.730945,2,9,31,5,1,,,,,,,,,,,,,,,,,,,,,,,
,,,,,,,stim/VC_02.wav,5fac89c216b5ae293eb9cfd9,2020-12-22_08h24.26.024,Spanish_step2,2020.2.3,MacIntel,60,,,left,0.56701,2,10,32,1,1,,,,,,,,,,,,,,,,,,,,,,,
,,,,,,,stim/VC_02.wav,5fac89c216b5ae293eb9cfd9,2020-12-22_08h24.26.024,Spanish_step2,2020.2.3,MacIntel,60,,,left,1.139425,,,,,,7,8.53442,0,0,0,1,1,,,,,,,,,,,,,,,,
,,,,,,,stim/VC_07.wav,5fac89c216b5ae293eb9cfd9,2020-12-22_08h24.26.024,Spanish_step2,2020.2.3,MacIntel,60,,,right,0.69889,,,,,,,,0,1,1,6,1,,,,,,,,,,,,,,,,
,,,,,,,stim/VC_03.wav,5fac89c216b5ae293eb9cfd9,2020-12-22_08h24.26.024,Spanish_step2,2020.2.3,MacIntel,60,,,left,0.59337,,,,,,,,0,2,2,2,1,,,,,,,,,,,,,,,,
,,,,,,,stim/VC_01.wav,5fac89c216b5ae293eb9cfd9,2020-12-22_08h24.26.024,Spanish_step2,2020.2.3,MacIntel,60,,,left,0.744665,,,,,,,,0,3,3,0,1,,,,,,,,,,,,,,,,
,,,,,,,stim/VC_10.wav,5fac89c216b5ae293eb9cfd9,2020-12-22_08h24.26.024,Spanish_step2,2020.2.3,MacIntel,60,,,right,0.623315,,,,,,,,0,4,4,9,1,,,,,,,,,,,,,,,,
,,,,,,,stim/VC_05.wav,5fac89c216b5ae293eb9cfd9,2020-12-22_08h24.26.024,Spanish_step2,2020.2.3,MacIntel,60,,,left,1.73666,,,,,,,,0,5,5,4,1,,,,,,,,,,,,,,,,
,,,,,,,stim/VC_08.wav,5fac89c216b5ae293eb9cfd9,2020-12-22_08h24.26.024,Spanish_step2,2020.2.3,MacIntel,60,,,right,0.59288,,,,,,,,0,6,6,7,1,,,,,,,,,,,,,,,,
,,,,,,,stim/VC_04.wav,5fac89c216b5ae293eb9cfd9,2020-12-22_08h24.26.024,Spanish_step2,2020.2.3,MacIntel,60,,,left,0.790125,,,,,,,,0,7,7,3,1,,,,,,,,,,,,,,,,
,,,,,,,stim/VC_09.wav,5fac89c216b5ae293eb9cfd9,2020-12-22_08h24.26.024,Spanish_step2,2020.2.3,MacIntel,60,,,right,0.627605,,,,,,,,0,8,8,8,1,,,,,,,,,,,,,,,,
,,,,,,,stim/VC_11.wav,5fac89c216b5ae293eb9cfd9,2020-12-22_08h24.26.024,Spanish_step2,2020.2.3,MacIntel,60,,,right,0.690885,,,,,,,,0,9,9,10,1,,,,,,,,,,,,,,,,
,,,,,,,stim/VC_06.wav,5fac89c216b5ae293eb9cfd9,2020-12-22_08h24.26.024,Spanish_step2,2020.2.3,MacIntel,60,,,left,2.24666,,,,,,,,0,10,10,5,1,,,,,,,,,,,,,,,,
,,,,,,,stim/VC_02.wav,5fac89c216b5ae293eb9cfd9,2020-12-22_08h24.26.024,Spanish_step2,2020.2.3,MacIntel,60,,,left,0.615785,,,,,,,,1,0,11,1,1,,,,,,,,,,,,,,,,
,,,,,,,stim/VC_11.wav,5fac89c216b5ae293eb9cfd9,2020-12-22_08h24.26.024,Spanish_step2,2020.2.3,MacIntel,60,,,right,0.545405,,,,,,,,1,1,12,10,1,,,,,,,,,,,,,,,,
,,,,,,,stim/VC_07.wav,5fac89c216b5ae293eb9cfd9,2020-12-22_08h24.26.024,Spanish_step2,2020.2.3,MacIntel,60,,,right,1.87682,,,,,,,,1,2,13,6,1,,,,,,,,,,,,,,,,
,,,,,,,stim/VC_04.wav,5fac89c216b5ae293eb9cfd9,2020-12-22_08h24.26.024,Spanish_step2,2020.2.3,MacIntel,60,,,left,0.812255,,,,,,,,1,3,14,3,1,,,,,,,,,,,,,,,,
,,,,,,,stim/VC_01.wav,5fac89c216b5ae293eb9cfd9,2020-12-22_08h24.26.024,Spanish_step2,2020.2.3,MacIntel,60,,,left,0.723175,,,,,,,,1,4,15,0,1,,,,,,,,,,,,,,,,
,,,,,,,stim/VC_08.wav,5fac89c216b5ae293eb9cfd9,2020-12-22_08h24.26.024,Spanish_step2,2020.2.3,MacIntel,60,,,right,0.700195,,,,,,,,1,5,16,7,1,,,,,,,,,,,,,,,,
,,,,,,,stim/VC_09.wav,5fac89c216b5ae293eb9cfd9,2020-12-22_08h24.26.024,Spanish_step2,2020.2.3,MacIntel,60,,,right,1.04048,,,,,,,,1,6,17,8,1,,,,,,,,,,,,,,,,
,,,,,,,stim/VC_05.wav,5fac89c216b5ae293eb9cfd9,2020-12-22_08h24.26.024,Spanish_step2,2020.2.3,MacIntel,60,,,right,1.890455,,,,,,,,1,7,18,4,1,,,,,,,,,,,,,,,,
,,,,,,,stim/VC_10.wav,5fac89c216b5ae293eb9cfd9,2020-12-22_08h24.26.024,Spanish_step2,2020.2.3,MacIntel,60,,,right,0.70813,,,,,,,,1,8,19,9,1,,,,,,,,,,,,,,,,
,,,,,,,stim/VC_03.wav,5fac89c216b5ae293eb9cfd9,2020-12-22_08h24.26.024,Spanish_step2,2020.2.3,MacIntel,60,,,left,0.61934,,,,,,,,1,9,20,2,1,,,,,,,,,,,,,,,,
,,,,,,,stim/VC_06.wav,5fac89c216b5ae293eb9cfd9,2020-12-22_08h24.26.024,Spanish_step2,2020.2.3,MacIntel,60,,,left,0.880435,,,,,,,,1,10,21,5,1,,,,,,,,,,,,,,,,
,,,,,,,stim2/pa+50.wav,5fac89c216b5ae293eb9cfd9,2020-12-22_08h24.26.024,Spanish_step2,2020.2.3,MacIntel,60,,,,,,,,,,,,,,,,,left,6.163795,0,0,0,9,1,,,,,,,,,
,,,,,,,stim2/pa+45.wav,5fac89c216b5ae293eb9cfd9,2020-12-22_08h24.26.024,Spanish_step2,2020.2.3,MacIntel,60,,,,,,,,,,,,,,,,,right,9.254285,0,1,1,8,1,,,,,,,,,
,,,,,,,stim2/pa+05.wav,5fac89c216b5ae293eb9cfd9,2020-12-22_08h24.26.024,Spanish_step2,2020.2.3,MacIntel,60,,,,,,,,,,,,,,,,,left,6.218065,0,2,2,0,1,,,,,,,,,
,,,,,,,stim2/pa+40.wav,5fac89c216b5ae293eb9cfd9,2020-12-22_08h24.26.024,Spanish_step2,2020.2.3,MacIntel,60,,,,,,,,,,,,,,,,,left,7.898765,0,3,3,7,1,,,,,,,,,
,,,,,,,stim2/pa+25.wav,5fac89c216b5ae293eb9cfd9,2020-12-22_08h24.26.024,Spanish_step2,2020.2.3,MacIntel,60,,,,,,,,,,,,,,,,,left,2.79401,0,4,4,4,1,,,,,,,,,
,,,,,,,stim2/pa-05.wav,5fac89c216b5ae293eb9cfd9,2020-12-22_08h24.26.024,Spanish_step2,2020.2.3,MacIntel,60,,,,,,,,,,,,,,,,,right,0.9303,0,5,5,10,1,,,,,,,,,
,,,,,,,stim2/pa+15.wav,5fac89c216b5ae293eb9cfd9,2020-12-22_08h24.26.024,Spanish_step2,2020.2.3,MacIntel,60,,,,,,,,,,,,,,,,,left,1.005535,0,6,6,2,1,,,,,,,,,
,,,,,,,stim2/pa-30.wav,5fac89c216b5ae293eb9cfd9,2020-12-22_08h24.26.024,Spanish_step2,2020.2.3,MacIntel,60,,,,,,,,,,,,,,,,,right,0.69731,0,7,7,15,1,,,,,,,,,
,,,,,,,stim2/pa-20.wav,5fac89c216b5ae293eb9cfd9,2020-12-22_08h24.26.024,Spanish_step2,2020.2.3,MacIntel,60,,,,,,,,,,,,,,,,,right,0.74759,0,8,8,13,1,,,,,,,,,
,,,,,,,stim2/pa-35.wav,5fac89c216b5ae293eb9cfd9,2020-12-22_08h24.26.024,Spanish_step2,2020.2.3,MacIntel,60,,,,,,,,,,,,,,,,,right,0.98027,0,9,9,16,1,,,,,,,,,
,,,,,,,stim2/pa+35.wav,5fac89c216b5ae293eb9cfd9,2020-12-22_08h24.26.024,Spanish_step2,2020.2.3,MacIntel,60,,,,,,,,,,,,,,,,,left,0.58985,0,10,10,6,1,,,,,,,,,
,,,,,,,stim2/pa-15.wav,5fac89c216b5ae293eb9cfd9,2020-12-22_08h24.26.024,Spanish_step2,2020.2.3,MacIntel,60,,,,,,,,,,,,,,,,,right,3.198105,0,11,11,12,1,,,,,,,,,
,,,,,,,stim2/pa-10.wav,5fac89c216b5ae293eb9cfd9,2020-12-22_08h24.26.024,Spanish_step2,2020.2.3,MacIntel,60,,,,,,,,,,,,,,,,,left,2.732075,0,12,12,11,1,,,,,,,,,
,,,,,,,stim2/pa+10.wav,5fac89c216b5ae293eb9cfd9,2020-12-22_08h24.26.024,Spanish_step2,2020.2.3,MacIntel,60,,,,,,,,,,,,,,,,,left,0.9454,0,13,13,1,1,,,,,,,,,
,,,,,,,stim2/pa-25.wav,5fac89c216b5ae293eb9cfd9,2020-12-22_08h24.26.024,Spanish_step2,2020.2.3,MacIntel,60,,,,,,,,,,,,,,,,,right,0.86373,0,14,14,14,1,,,,,,,,,
,,,,,,,stim2/pa+20.wav,5fac89c216b5ae293eb9cfd9,2020-12-22_08h24.26.024,Spanish_step2,2020.2.3,MacIntel,60,,,,,,,,,,,,,,,,,left,0.478135,0,15,15,3,1,,,,,,,,,
,,,,,,,stim2/pa+30.wav,5fac89c216b5ae293eb9cfd9,2020-12-22_08h24.26.024,Spanish_step2,2020.2.3,MacIntel,60,,,,,,,,,,,,,,,,,left,0.53707,0,16,16,5,1,,,,,,,,,
,,,,,,,stim2/pa+10.wav,5fac89c216b5ae293eb9cfd9,2020-12-22_08h24.26.024,Spanish_step2,2020.2.3,MacIntel,60,,,,,,,,,,,,,,,,,left,0.580825,1,0,17,1,1,,,,,,,,,
,,,,,,,stim2/pa+35.wav,5fac89c216b5ae293eb9cfd9,2020-12-22_08h24.26.024,Spanish_step2,2020.2.3,MacIntel,60,,,,,,,,,,,,,,,,,left,0.60236,1,1,18,6,1,,,,,,,,,
,,,,,,,stim2/pa-10.wav,5fac89c216b5ae293eb9cfd9,2020-12-22_08h24.26.024,Spanish_step2,2020.2.3,MacIntel,60,,,,,,,,,,,,,,,,,right,0.71715,1,2,19,11,1,,,,,,,,,
,,,,,,,stim2/pa-05.wav,5fac89c216b5ae293eb9cfd9,2020-12-22_08h24.26.024,Spanish_step2,2020.2.3,MacIntel,60,,,,,,,,,,,,,,,,,right,0.95461,1,3,20,10,1,,,,,,,,,
,,,,,,,stim2/pa+30.wav,5fac89c216b5ae293eb9cfd9,2020-12-22_08h24.26.024,Spanish_step2,2020.2.3,MacIntel,60,,,,,,,,,,,,,,,,,left,0.60875,1,4,21,5,1,,,,,,,,,
,,,,,,,stim2/pa+15.wav,5fac89c216b5ae293eb9cfd9,2020-12-22_08h24.26.024,Spanish_step2,2020.2.3,MacIntel,60,,,,,,,,,,,,,,,,,left,0.65235,1,5,22,2,1,,,,,,,,,
,,,,,,,stim2/pa-35.wav,5fac89c216b5ae293eb9cfd9,2020-12-22_08h24.26.024,Spanish_step2,2020.2.3,MacIntel,60,,,,,,,,,,,,,,,,,right,0.70587,1,6,23,16,1,,,,,,,,,
,,,,,,,stim2/pa+25.wav,5fac89c216b5ae293eb9cfd9,2020-12-22_08h24.26.024,Spanish_step2,2020.2.3,MacIntel,60,,,,,,,,,,,,,,,,,left,0.7583,1,7,24,4,1,,,,,,,,,
,,,,,,,stim2/pa-25.wav,5fac89c216b5ae293eb9cfd9,2020-12-22_08h24.26.024,Spanish_step2,2020.2.3,MacIntel,60,,,,,,,,,,,,,,,,,right,0.866065,1,8,25,14,1,,,,,,,,,
,,,,,,,stim2/pa+40.wav,5fac89c216b5ae293eb9cfd9,2020-12-22_08h24.26.024,Spanish_step2,2020.2.3,MacIntel,60,,,,,,,,,,,,,,,,,left,0.867,1,9,26,7,1,,,,,,,,,
,,,,,,,stim2/pa-30.wav,5fac89c216b5ae293eb9cfd9,2020-12-22_08h24.26.024,Spanish_step2,2020.2.3,MacIntel,60,,,,,,,,,,,,,,,,,right,0.68688,1,10,27,15,1,,,,,,,,,
,,,,,,,stim2/pa+45.wav,5fac89c216b5ae293eb9cfd9,2020-12-22_08h24.26.024,Spanish_step2,2020.2.3,MacIntel,60,,,,,,,,,,,,,,,,,left,0.73349,1,11,28,8,1,,,,,,,,,
,,,,,,,stim2/pa-20.wav,5fac89c216b5ae293eb9cfd9,2020-12-22_08h24.26.024,Spanish_step2,2020.2.3,MacIntel,60,,,,,,,,,,,,,,,,,right,0.83874,1,12,29,13,1,,,,,,,,,
,,,,,,,stim2/pa+50.wav,5fac89c216b5ae293eb9cfd9,2020-12-22_08h24.26.024,Spanish_step2,2020.2.3,MacIntel,60,,,,,,,,,,,,,,,,,left,0.64435,1,13,30,9,1,,,,,,,,,
,,,,,,,stim2/pa+05.wav,5fac89c216b5ae293eb9cfd9,2020-12-22_08h24.26.024,Spanish_step2,2020.2.3,MacIntel,60,,,,,,,,,,,,,,,,,left,0.700625,1,14,31,0,1,,,,,,,,,
,,,,,,,stim2/pa+20.wav,5fac89c216b5ae293eb9cfd9,2020-12-22_08h24.26.024,Spanish_step2,2020.2.3,MacIntel,60,,,,,,,,,,,,,,,,,left,0.60995,1,15,32,3,1,,,,,,,,,
,,,,,,,stim2/pa-15.wav,5fac89c216b5ae293eb9cfd9,2020-12-22_08h24.26.024,Spanish_step2,2020.2.3,MacIntel,60,,,,,,,,,,,,,,,,,left,5.718445,1,16,33,12,1,,,,,,,,,
,,,,,,,stim2/pa-35.wav,5fac89c216b5ae293eb9cfd9,2020-12-22_08h24.26.024,Spanish_step2,2020.2.3,MacIntel,60,,,,,,,,,,,,,,,,,right,1.485395,2,0,34,16,1,,,,,,,,,
,,,,,,,stim2/pa+25.wav,5fac89c216b5ae293eb9cfd9,2020-12-22_08h24.26.024,Spanish_step2,2020.2.3,MacIntel,60,,,,,,,,,,,,,,,,,left,0.71861,2,1,35,4,1,,,,,,,,,
,,,,,,,stim2/pa+10.wav,5fac89c216b5ae293eb9cfd9,2020-12-22_08h24.26.024,Spanish_step2,2020.2.3,MacIntel,60,,,,,,,,,,,,,,,,,left,0.60685,2,2,36,1,1,,,,,,,,,
,,,,,,,stim2/pa+05.wav,5fac89c216b5ae293eb9cfd9,2020-12-22_08h24.26.024,Spanish_step2,2020.2.3,MacIntel,60,,,,,,,,,,,,,,,,,left,0.671165,2,3,37,0,1,,,,,,,,,
,,,,,,,stim2/pa-05.wav,5fac89c216b5ae293eb9cfd9,2020-12-22_08h24.26.024,Spanish_step2,2020.2.3,MacIntel,60,,,,,,,,,,,,,,,,,left,0.759185,2,4,38,10,1,,,,,,,,,
,,,,,,,stim2/pa+35.wav,5fac89c216b5ae293eb9cfd9,2020-12-22_08h24.26.024,Spanish_step2,2020.2.3,MacIntel,60,,,,,,,,,,,,,,,,,left,0.538045,2,5,39,6,1,,,,,,,,,
,,,,,,,stim2/pa+45.wav,5fac89c216b5ae293eb9cfd9,2020-12-22_08h24.26.024,Spanish_step2,2020.2.3,MacIntel,60,,,,,,,,,,,,,,,,,left,0.55071,2,6,40,8,1,,,,,,,,,
,,,,,,,stim2/pa-10.wav,5fac89c216b5ae293eb9cfd9,2020-12-22_08h24.26.024,Spanish_step2,2020.2.3,MacIntel,60,,,,,,,,,,,,,,,,,left,0.69218,2,7,41,11,1,,,,,,,,,
,,,,,,,stim2/pa-15.wav,5fac89c216b5ae293eb9cfd9,2020-12-22_08h24.26.024,Spanish_step2,2020.2.3,MacIntel,60,,,,,,,,,,,,,,,,,right,2.24238,2,8,42,12,1,,,,,,,,,
,,,,,,,stim2/pa+50.wav,5fac89c216b5ae293eb9cfd9,2020-12-22_08h24.26.024,Spanish_step2,2020.2.3,MacIntel,60,,,,,,,,,,,,,,,,,left,0.450435,2,9,43,9,1,,,,,,,,,
,,,,,,,stim2/pa+40.wav,5fac89c216b5ae293eb9cfd9,2020-12-22_08h24.26.024,Spanish_step2,2020.2.3,MacIntel,60,,,,,,,,,,,,,,,,,left,1.01566,2,10,44,7,1,,,,,,,,,
,,,,,,,stim2/pa+30.wav,5fac89c216b5ae293eb9cfd9,2020-12-22_08h24.26.024,Spanish_step2,2020.2.3,MacIntel,60,,,,,,,,,,,,,,,,,left,0.630265,2,11,45,5,1,,,,,,,,,
,,,,,,,stim2/pa+20.wav,5fac89c216b5ae293eb9cfd9,2020-12-22_08h24.26.024,Spanish_step2,2020.2.3,MacIntel,60,,,,,,,,,,,,,,,,,left,0.488055,2,12,46,3,1,,,,,,,,,
,,,,,,,stim2/pa-25.wav,5fac89c216b5ae293eb9cfd9,2020-12-22_08h24.26.024,Spanish_step2,2020.2.3,MacIntel,60,,,,,,,,,,,,,,,,,right,1.033865,2,13,47,14,1,,,,,,,,,
,,,,,,,stim2/pa-30.wav,5fac89c216b5ae293eb9cfd9,2020-12-22_08h24.26.024,Spanish_step2,2020.2.3,MacIntel,60,,,,,,,,,,,,,,,,,right,5.753225,2,14,48,15,1,,,,,,,,,
,,,,,,,stim2/pa+15.wav,5fac89c216b5ae293eb9cfd9,2020-12-22_08h24.26.024,Spanish_step2,2020.2.3,MacIntel,60,,,,,,,,,,,,,,,,,left,0.86549,2,15,49,2,1,,,,,,,,,
,,,,,,,stim2/pa-20.wav,5fac89c216b5ae293eb9cfd9,2020-12-22_08h24.26.024,Spanish_step2,2020.2.3,MacIntel,60,,,,,,,,,,,,,,,,,right,1.390275,2,16,50,13,1,,,,,,,,,
,,,,,,,stim2/pa-10.wav,5fac89c216b5ae293eb9cfd9,2020-12-22_08h24.26.024,Spanish_step2,2020.2.3,MacIntel,60,,,,,,,,,,,,,,,,,right,6.142795,,,,,,z,3.05001,0,0,0,11,1,,
,,,,,,,stim2/pa+05.wav,5fac89c216b5ae293eb9cfd9,2020-12-22_08h24.26.024,Spanish_step2,2020.2.3,MacIntel,60,,,,,,,,,,,,,,,,,left,0.55654,,,,,,,,0,1,1,0,1,,
,,,,,,,stim2/pa-35.wav,5fac89c216b5ae293eb9cfd9,2020-12-22_08h24.26.024,Spanish_step2,2020.2.3,MacIntel,60,,,,,,,,,,,,,,,,,right,0.689625,,,,,,,,0,2,2,16,1,,
,,,,,,,stim2/pa+35.wav,5fac89c216b5ae293eb9cfd9,2020-12-22_08h24.26.024,Spanish_step2,2020.2.3,MacIntel,60,,,,,,,,,,,,,,,,,left,0.512865,,,,,,,,0,3,3,6,1,,
,,,,,,,stim2/pa+10.wav,5fac89c216b5ae293eb9cfd9,2020-12-22_08h24.26.024,Spanish_step2,2020.2.3,MacIntel,60,,,,,,,,,,,,,,,,,left,0.724205,,,,,,,,0,4,4,1,1,,
,,,,,,,stim2/pa-05.wav,5fac89c216b5ae293eb9cfd9,2020-12-22_08h24.26.024,Spanish_step2,2020.2.3,MacIntel,60,,,,,,,,,,,,,,,,,left,1.835555,,,,,,,,0,5,5,10,1,,
,,,,,,,stim2/pa+15.wav,5fac89c216b5ae293eb9cfd9,2020-12-22_08h24.26.024,Spanish_step2,2020.2.3,MacIntel,60,,,,,,,,,,,,,,,,,left,0.73835,,,,,,,,0,6,6,2,1,,
,,,,,,,stim2/pa-20.wav,5fac89c216b5ae293eb9cfd9,2020-12-22_08h24.26.024,Spanish_step2,2020.2.3,MacIntel,60,,,,,,,,,,,,,,,,,left,0.943755,,,,,,,,0,7,7,13,1,,
,,,,,,,stim2/pa+45.wav,5fac89c216b5ae293eb9cfd9,2020-12-22_08h24.26.024,Spanish_step2,2020.2.3,MacIntel,60,,,,,,,,,,,,,,,,,right,0.98793,,,,,,,,0,8,8,8,1,,
,,,,,,,stim2/pa+40.wav,5fac89c216b5ae293eb9cfd9,2020-12-22_08h24.26.024,Spanish_step2,2020.2.3,MacIntel,60,,,,,,,,,,,,,,,,,left,0.573245,,,,,,,,0,9,9,7,1,,
,,,,,,,stim2/pa+50.wav,5fac89c216b5ae293eb9cfd9,2020-12-22_08h24.26.024,Spanish_step2,2020.2.3,MacIntel,60,,,,,,,,,,,,,,,,,right,1.399885,,,,,,,,0,10,10,9,1,,
,,,,,,,stim2/pa-30.wav,5fac89c216b5ae293eb9cfd9,2020-12-22_08h24.26.024,Spanish_step2,2020.2.3,MacIntel,60,,,,,,,,,,,,,,,,,right,0.9038,,,,,,,,0,11,11,15,1,,
,,,,,,,stim2/pa-25.wav,5fac89c216b5ae293eb9cfd9,2020-12-22_08h24.26.024,Spanish_step2,2020.2.3,MacIntel,60,,,,,,,,,,,,,,,,,left,1.17567,,,,,,,,0,12,12,14,1,,
,,,,,,,stim2/pa+30.wav,5fac89c216b5ae293eb9cfd9,2020-12-22_08h24.26.024,Spanish_step2,2020.2.3,MacIntel,60,,,,,,,,,,,,,,,,,left,0.65133,,,,,,,,0,13,13,5,1,,
,,,,,,,stim2/pa-15.wav,5fac89c216b5ae293eb9cfd9,2020-12-22_08h24.26.024,Spanish_step2,2020.2.3,MacIntel,60,,,,,,,,,,,,,,,,,left,0.662965,,,,,,,,0,14,14,12,1,,
,,,,,,,stim2/pa+20.wav,5fac89c216b5ae293eb9cfd9,2020-12-22_08h24.26.024,Spanish_step2,2020.2.3,MacIntel,60,,,,,,,,,,,,,,,,,left,0.84937,,,,,,,,0,15,15,3,1,,
,,,,,,,stim2/pa+25.wav,5fac89c216b5ae293eb9cfd9,2020-12-22_08h24.26.024,Spanish_step2,2020.2.3,MacIntel,60,,,,,,,,,,,,,,,,,left,0.864235,,,,,,,,0,16,16,4,1,,
,,,,,,,stim2/pa+10.wav,5fac89c216b5ae293eb9cfd9,2020-12-22_08h24.26.024,Spanish_step2,2020.2.3,MacIntel,60,,,,,,,,,,,,,,,,,left,0.49583,,,,,,,,1,0,17,1,1,,
,,,,,,,stim2/pa+20.wav,5fac89c216b5ae293eb9cfd9,2020-12-22_08h24.26.024,Spanish_step2,2020.2.3,MacIntel,60,,,,,,,,,,,,,,,,,left,0.768745,,,,,,,,1,1,18,3,1,,
,,,,,,,stim2/pa-10.wav,5fac89c216b5ae293eb9cfd9,2020-12-22_08h24.26.024,Spanish_step2,2020.2.3,MacIntel,60,,,,,,,,,,,,,,,,,left,0.638175,,,,,,,,1,2,19,11,1,,
,,,,,,,stim2/pa-35.wav,5fac89c216b5ae293eb9cfd9,2020-12-22_08h24.26.024,Spanish_step2,2020.2.3,MacIntel,60,,,,,,,,,,,,,,,,,right,0.9436,,,,,,,,1,3,20,16,1,,
,,,,,,,stim2/pa+50.wav,5fac89c216b5ae293eb9cfd9,2020-12-22_08h24.26.024,Spanish_step2,2020.2.3,MacIntel,60,,,,,,,,,,,,,,,,,left,0.650435,,,,,,,,1,4,21,9,1,,
,,,,,,,stim2/pa-15.wav,5fac89c216b5ae293eb9cfd9,2020-12-22_08h24.26.024,Spanish_step2,2020.2.3,MacIntel,60,,,,,,,,,,,,,,,,,left,1.38048,,,,,,,,1,5,22,12,1,,
,,,,,,,stim2/pa-05.wav,5fac89c216b5ae293eb9cfd9,2020-12-22_08h24.26.024,Spanish_step2,2020.2.3,MacIntel,60,,,,,,,,,,,,,,,,,left,0.74466,,,,,,,,1,6,23,10,1,,
,,,,,,,stim2/pa-20.wav,5fac89c216b5ae293eb9cfd9,2020-12-22_08h24.26.024,Spanish_step2,2020.2.3,MacIntel,60,,,,,,,,,,,,,,,,,left,0.72163,,,,,,,,1,7,24,13,1,,
,,,,,,,stim2/pa+35.wav,5fac89c216b5ae293eb9cfd9,2020-12-22_08h24.26.024,Spanish_step2,2020.2.3,MacIntel,60,,,,,,,,,,,,,,,,,left,0.562285,,,,,,,,1,8,25,6,1,,
,,,,,,,stim2/pa+45.wav,5fac89c216b5ae293eb9cfd9,2020-12-22_08h24.26.024,Spanish_step2,2020.2.3,MacIntel,60,,,,,,,,,,,,,,,,,left,0.87069,,,,,,,,1,9,26,8,1,,
,,,,,,,stim2/pa+05.wav,5fac89c216b5ae293eb9cfd9,2020-12-22_08h24.26.024,Spanish_step2,2020.2.3,MacIntel,60,,,,,,,,,,,,,,,,,left,0.582245,,,,,,,,1,10,27,0,1,,
,,,,,,,stim2/pa+30.wav,5fac89c216b5ae293eb9cfd9,2020-12-22_08h24.26.024,Spanish_step2,2020.2.3,MacIntel,60,,,,,,,,,,,,,,,,,left,0.517935,,,,,,,,1,11,28,5,1,,
,,,,,,,stim2/pa-30.wav,5fac89c216b5ae293eb9cfd9,2020-12-22_08h24.26.024,Spanish_step2,2020.2.3,MacIntel,60,,,,,,,,,,,,,,,,,right,0.87641,,,,,,,,1,12,29,15,1,,
,,,,,,,stim2/pa+25.wav,5fac89c216b5ae293eb9cfd9,2020-12-22_08h24.26.024,Spanish_step2,2020.2.3,MacIntel,60,,,,,,,,,,,,,,,,,left,0.48127,,,,,,,,1,13,30,4,1,,
,,,,,,,stim2/pa+15.wav,5fac89c216b5ae293eb9cfd9,2020-12-22_08h24.26.024,Spanish_step2,2020.2.3,MacIntel,60,,,,,,,,,,,,,,,,,left,0.537225,,,,,,,,1,14,31,2,1,,
,,,,,,,stim2/pa-25.wav,5fac89c216b5ae293eb9cfd9,2020-12-22_08h24.26.024,Spanish_step2,2020.2.3,MacIntel,60,,,,,,,,,,,,,,,,,right,0.95491,,,,,,,,1,15,32,14,1,,
,,,,,,,stim2/pa+40.wav,5fac89c216b5ae293eb9cfd9,2020-12-22_08h24.26.024,Spanish_step2,2020.2.3,MacIntel,60,,,,,,,,,,,,,,,,,left,0.679795,,,,,,,,1,16,33,7,1,,
,,,,,,,,5fac89c216b5ae293eb9cfd9,2020-12-22_08h24.26.024,Spanish_step2,2020.2.3,MacIntel,60,,,,,,,,,,,,,,,,,,,,,,,,,,,,,,,space,10.725395
