resp.keys,resp.rt,trials.thisRepN,trials.thisTrialN,trials.thisN,trials.thisIndex,trials.ran,stimuli,participant,date,expName,psychopyVersion,OS,frameRate,gotResponse.keys,gotResponse.rt,resp_2.keys,resp_2.rt,trials_2.thisRepN,trials_2.thisTrialN,trials_2.thisN,trials_2.thisIndex,trials_2.ran,key_resp_3.keys,key_resp_3.corr,key_resp_3.rt,trials_4.thisRepN,trials_4.thisTrialN,trials_4.thisN,trials_4.thisIndex,trials_4.ran,resp_3.keys,resp_3.rt,trials_3.thisRepN,trials_3.thisTrialN,trials_3.thisN,trials_3.thisIndex,trials_3.ran,key_resp_2.keys,key_resp_2.rt,trials_5.thisRepN,trials_5.thisTrialN,trials_5.thisN,trials_5.thisIndex,trials_5.ran,key_resp.keys,key_resp.rt
right,0.91833,0,0,0,1,1,stim/VC_11.wav,5d3894798bb75200164c557e,2020-12-29_11h00.54.302,English_step1,2020.2.3,Win32,60,,,,,,,,,,,,,,,,,,,,,,,,,,,,,,,,,
left,0.566155,0,1,1,0,1,stim/VC_01.wav,5d3894798bb75200164c557e,2020-12-29_11h00.54.302,English_step1,2020.2.3,Win32,60,,,,,,,,,,,,,,,,,,,,,,,,,,,,,,,,,
,,,,,,,stim/VC_02.wav,5d3894798bb75200164c557e,2020-12-29_11h00.54.302,English_step1,2020.2.3,Win32,60,space,0.767515,left,0.789845,0,0,0,1,1,,,,,,,,,,,,,,,,,,,,,,,,
,,,,,,,stim/VC_05.wav,5d3894798bb75200164c557e,2020-12-29_11h00.54.302,English_step1,2020.2.3,Win32,60,,,right,0.45518,0,1,1,4,1,,,,,,,,,,,,,,,,,,,,,,,,
,,,,,,,stim/VC_03.wav,5d3894798bb75200164c557e,2020-12-29_11h00.54.302,English_step1,2020.2.3,Win32,60,,,right,0.650585,0,2,2,2,1,,,,,,,,,,,,,,,,,,,,,,,,
,,,,,,,stim/VC_06.wav,5d3894798bb75200164c557e,2020-12-29_11h00.54.302,English_step1,2020.2.3,Win32,60,,,right,0.52613,0,3,3,5,1,,,,,,,,,,,,,,,,,,,,,,,,
,,,,,,,stim/VC_10.wav,5d3894798bb75200164c557e,2020-12-29_11h00.54.302,English_step1,2020.2.3,Win32,60,,,right,0.643125,0,4,4,9,1,,,,,,,,,,,,,,,,,,,,,,,,
,,,,,,,stim/VC_04.wav,5d3894798bb75200164c557e,2020-12-29_11h00.54.302,English_step1,2020.2.3,Win32,60,,,right,0.51743,0,5,5,3,1,,,,,,,,,,,,,,,,,,,,,,,,
,,,,,,,stim/VC_08.wav,5d3894798bb75200164c557e,2020-12-29_11h00.54.302,English_step1,2020.2.3,Win32,60,,,right,0.44415,0,6,6,7,1,,,,,,,,,,,,,,,,,,,,,,,,
,,,,,,,stim/VC_07.wav,5d3894798bb75200164c557e,2020-12-29_11h00.54.302,English_step1,2020.2.3,Win32,60,,,right,0.4534,0,7,7,6,1,,,,,,,,,,,,,,,,,,,,,,,,
,,,,,,,stim/VC_01.wav,5d3894798bb75200164c557e,2020-12-29_11h00.54.302,English_step1,2020.2.3,Win32,60,,,left,0.70131,0,8,8,0,1,,,,,,,,,,,,,,,,,,,,,,,,
,,,,,,,stim/VC_09.wav,5d3894798bb75200164c557e,2020-12-29_11h00.54.302,English_step1,2020.2.3,Win32,60,,,right,0.638155,0,9,9,8,1,,,,,,,,,,,,,,,,,,,,,,,,
,,,,,,,stim/VC_11.wav,5d3894798bb75200164c557e,2020-12-29_11h00.54.302,English_step1,2020.2.3,Win32,60,,,right,0.48292,0,10,10,10,1,,,,,,,,,,,,,,,,,,,,,,,,
,,,,,,,stim/VC_05.wav,5d3894798bb75200164c557e,2020-12-29_11h00.54.302,English_step1,2020.2.3,Win32,60,,,right,0.437885,1,0,11,4,1,,,,,,,,,,,,,,,,,,,,,,,,
,,,,,,,stim/VC_08.wav,5d3894798bb75200164c557e,2020-12-29_11h00.54.302,English_step1,2020.2.3,Win32,60,,,right,0.416945,1,1,12,7,1,,,,,,,,,,,,,,,,,,,,,,,,
,,,,,,,stim/VC_09.wav,5d3894798bb75200164c557e,2020-12-29_11h00.54.302,English_step1,2020.2.3,Win32,60,,,right,0.43381,1,2,13,8,1,,,,,,,,,,,,,,,,,,,,,,,,
,,,,,,,stim/VC_01.wav,5d3894798bb75200164c557e,2020-12-29_11h00.54.302,English_step1,2020.2.3,Win32,60,,,left,0.555525,1,3,14,0,1,,,,,,,,,,,,,,,,,,,,,,,,
,,,,,,,stim/VC_04.wav,5d3894798bb75200164c557e,2020-12-29_11h00.54.302,English_step1,2020.2.3,Win32,60,,,right,0.65053,1,4,15,3,1,,,,,,,,,,,,,,,,,,,,,,,,
,,,,,,,stim/VC_02.wav,5d3894798bb75200164c557e,2020-12-29_11h00.54.302,English_step1,2020.2.3,Win32,60,,,left,0.676215,1,5,16,1,1,,,,,,,,,,,,,,,,,,,,,,,,
,,,,,,,stim/VC_06.wav,5d3894798bb75200164c557e,2020-12-29_11h00.54.302,English_step1,2020.2.3,Win32,60,,,right,0.61734,1,6,17,5,1,,,,,,,,,,,,,,,,,,,,,,,,
,,,,,,,stim/VC_03.wav,5d3894798bb75200164c557e,2020-12-29_11h00.54.302,English_step1,2020.2.3,Win32,60,,,right,0.733165,1,7,18,2,1,,,,,,,,,,,,,,,,,,,,,,,,
,,,,,,,stim/VC_10.wav,5d3894798bb75200164c557e,2020-12-29_11h00.54.302,English_step1,2020.2.3,Win32,60,,,right,0.650545,1,8,19,9,1,,,,,,,,,,,,,,,,,,,,,,,,
,,,,,,,stim/VC_07.wav,5d3894798bb75200164c557e,2020-12-29_11h00.54.302,English_step1,2020.2.3,Win32,60,,,right,0.770705,1,9,20,6,1,,,,,,,,,,,,,,,,,,,,,,,,
,,,,,,,stim/VC_11.wav,5d3894798bb75200164c557e,2020-12-29_11h00.54.302,English_step1,2020.2.3,Win32,60,,,right,0.802015,1,10,21,10,1,,,,,,,,,,,,,,,,,,,,,,,,
,,,,,,,stim/VC_05.wav,5d3894798bb75200164c557e,2020-12-29_11h00.54.302,English_step1,2020.2.3,Win32,60,,,right,1.36651,2,0,22,4,1,,,,,,,,,,,,,,,,,,,,,,,,
,,,,,,,stim/VC_07.wav,5d3894798bb75200164c557e,2020-12-29_11h00.54.302,English_step1,2020.2.3,Win32,60,,,right,0.666655,2,1,23,6,1,,,,,,,,,,,,,,,,,,,,,,,,
,,,,,,,stim/VC_01.wav,5d3894798bb75200164c557e,2020-12-29_11h00.54.302,English_step1,2020.2.3,Win32,60,,,left,0.659005,2,2,24,0,1,,,,,,,,,,,,,,,,,,,,,,,,
,,,,,,,stim/VC_02.wav,5d3894798bb75200164c557e,2020-12-29_11h00.54.302,English_step1,2020.2.3,Win32,60,,,left,0.621055,2,3,25,1,1,,,,,,,,,,,,,,,,,,,,,,,,
,,,,,,,stim/VC_09.wav,5d3894798bb75200164c557e,2020-12-29_11h00.54.302,English_step1,2020.2.3,Win32,60,,,right,0.466865,2,4,26,8,1,,,,,,,,,,,,,,,,,,,,,,,,
,,,,,,,stim/VC_10.wav,5d3894798bb75200164c557e,2020-12-29_11h00.54.302,English_step1,2020.2.3,Win32,60,,,right,0.58739,2,5,27,9,1,,,,,,,,,,,,,,,,,,,,,,,,
,,,,,,,stim/VC_06.wav,5d3894798bb75200164c557e,2020-12-29_11h00.54.302,English_step1,2020.2.3,Win32,60,,,right,0.484205,2,6,28,5,1,,,,,,,,,,,,,,,,,,,,,,,,
,,,,,,,stim/VC_11.wav,5d3894798bb75200164c557e,2020-12-29_11h00.54.302,English_step1,2020.2.3,Win32,60,,,right,0.482285,2,7,29,10,1,,,,,,,,,,,,,,,,,,,,,,,,
,,,,,,,stim/VC_04.wav,5d3894798bb75200164c557e,2020-12-29_11h00.54.302,English_step1,2020.2.3,Win32,60,,,right,0.45303,2,8,30,3,1,,,,,,,,,,,,,,,,,,,,,,,,
,,,,,,,stim/VC_03.wav,5d3894798bb75200164c557e,2020-12-29_11h00.54.302,English_step1,2020.2.3,Win32,60,,,right,0.438265,2,9,31,2,1,,,,,,,,,,,,,,,,,,,,,,,,
,,,,,,,stim/VC_08.wav,5d3894798bb75200164c557e,2020-12-29_11h00.54.302,English_step1,2020.2.3,Win32,60,,,right,0.53321,2,10,32,7,1,,,,,,,,,,,,,,,,,,,,,,,,
,,,,,,,stim/VC_07.wav,5d3894798bb75200164c557e,2020-12-29_11h00.54.302,English_step1,2020.2.3,Win32,60,,,right,1.299975,,,,,,4,0,6.868465,0,0,0,6,1,,,,,,,,,,,,,,,,
,,,,,,,stim/VC_05.wav,5d3894798bb75200164c557e,2020-12-29_11h00.54.302,English_step1,2020.2.3,Win32,60,,,right,0.54906,,,,,,,,,0,1,1,4,1,,,,,,,,,,,,,,,,
,,,,,,,stim/VC_06.wav,5d3894798bb75200164c557e,2020-12-29_11h00.54.302,English_step1,2020.2.3,Win32,60,,,right,0.309415,,,,,,,,,0,2,2,5,1,,,,,,,,,,,,,,,,
,,,,,,,stim/VC_01.wav,5d3894798bb75200164c557e,2020-12-29_11h00.54.302,English_step1,2020.2.3,Win32,60,,,left,0.651455,,,,,,,,,0,3,3,0,1,,,,,,,,,,,,,,,,
,,,,,,,stim/VC_10.wav,5d3894798bb75200164c557e,2020-12-29_11h00.54.302,English_step1,2020.2.3,Win32,60,,,right,0.56693,,,,,,,,,0,4,4,9,1,,,,,,,,,,,,,,,,
,,,,,,,stim/VC_09.wav,5d3894798bb75200164c557e,2020-12-29_11h00.54.302,English_step1,2020.2.3,Win32,60,,,right,0.565945,,,,,,,,,0,5,5,8,1,,,,,,,,,,,,,,,,
,,,,,,,stim/VC_03.wav,5d3894798bb75200164c557e,2020-12-29_11h00.54.302,English_step1,2020.2.3,Win32,60,,,left,0.970615,,,,,,,,,0,6,6,2,1,,,,,,,,,,,,,,,,
,,,,,,,stim/VC_08.wav,5d3894798bb75200164c557e,2020-12-29_11h00.54.302,English_step1,2020.2.3,Win32,60,,,right,0.38329,,,,,,,,,0,7,7,7,1,,,,,,,,,,,,,,,,
,,,,,,,stim/VC_11.wav,5d3894798bb75200164c557e,2020-12-29_11h00.54.302,English_step1,2020.2.3,Win32,60,,,right,0.354225,,,,,,,,,0,8,8,10,1,,,,,,,,,,,,,,,,
,,,,,,,stim/VC_04.wav,5d3894798bb75200164c557e,2020-12-29_11h00.54.302,English_step1,2020.2.3,Win32,60,,,right,0.31923,,,,,,,,,0,9,9,3,1,,,,,,,,,,,,,,,,
,,,,,,,stim/VC_02.wav,5d3894798bb75200164c557e,2020-12-29_11h00.54.302,English_step1,2020.2.3,Win32,60,,,right,0.254145,,,,,,,,,0,10,10,1,1,,,,,,,,,,,,,,,,
,,,,,,,stim/VC_07.wav,5d3894798bb75200164c557e,2020-12-29_11h00.54.302,English_step1,2020.2.3,Win32,60,,,right,0.677145,,,,,,,,,1,0,11,6,1,,,,,,,,,,,,,,,,
,,,,,,,stim/VC_06.wav,5d3894798bb75200164c557e,2020-12-29_11h00.54.302,English_step1,2020.2.3,Win32,60,,,right,0.55544,,,,,,,,,1,1,12,5,1,,,,,,,,,,,,,,,,
,,,,,,,stim/VC_01.wav,5d3894798bb75200164c557e,2020-12-29_11h00.54.302,English_step1,2020.2.3,Win32,60,,,left,0.741845,,,,,,,,,1,2,13,0,1,,,,,,,,,,,,,,,,
,,,,,,,stim/VC_08.wav,5d3894798bb75200164c557e,2020-12-29_11h00.54.302,English_step1,2020.2.3,Win32,60,,,right,0.633425,,,,,,,,,1,3,14,7,1,,,,,,,,,,,,,,,,
,,,,,,,stim/VC_03.wav,5d3894798bb75200164c557e,2020-12-29_11h00.54.302,English_step1,2020.2.3,Win32,60,,,right,0.932595,,,,,,,,,1,4,15,2,1,,,,,,,,,,,,,,,,
,,,,,,,stim/VC_10.wav,5d3894798bb75200164c557e,2020-12-29_11h00.54.302,English_step1,2020.2.3,Win32,60,,,right,0.553055,,,,,,,,,1,5,16,9,1,,,,,,,,,,,,,,,,
,,,,,,,stim/VC_02.wav,5d3894798bb75200164c557e,2020-12-29_11h00.54.302,English_step1,2020.2.3,Win32,60,,,left,0.799525,,,,,,,,,1,6,17,1,1,,,,,,,,,,,,,,,,
,,,,,,,stim/VC_11.wav,5d3894798bb75200164c557e,2020-12-29_11h00.54.302,English_step1,2020.2.3,Win32,60,,,right,0.43283,,,,,,,,,1,7,18,10,1,,,,,,,,,,,,,,,,
,,,,,,,stim/VC_04.wav,5d3894798bb75200164c557e,2020-12-29_11h00.54.302,English_step1,2020.2.3,Win32,60,,,right,0.42127,,,,,,,,,1,8,19,3,1,,,,,,,,,,,,,,,,
,,,,,,,stim/VC_09.wav,5d3894798bb75200164c557e,2020-12-29_11h00.54.302,English_step1,2020.2.3,Win32,60,,,right,0.603075,,,,,,,,,1,9,20,8,1,,,,,,,,,,,,,,,,
,,,,,,,stim/VC_05.wav,5d3894798bb75200164c557e,2020-12-29_11h00.54.302,English_step1,2020.2.3,Win32,60,,,right,0.38366,,,,,,,,,1,10,21,4,1,,,,,,,,,,,,,,,,
,,,,,,,stim2/pa+50.wav,5d3894798bb75200164c557e,2020-12-29_11h00.54.302,English_step1,2020.2.3,Win32,60,,,,,,,,,,,,,,,,,,left,1.914485,0,0,0,9,1,,,,,,,,,
,,,,,,,stim2/pa-15.wav,5d3894798bb75200164c557e,2020-12-29_11h00.54.302,English_step1,2020.2.3,Win32,60,,,,,,,,,,,,,,,,,,right,0.5331,0,1,1,12,1,,,,,,,,,
,,,,,,,stim2/pa-05.wav,5d3894798bb75200164c557e,2020-12-29_11h00.54.302,English_step1,2020.2.3,Win32,60,,,,,,,,,,,,,,,,,,right,0.608255,0,2,2,10,1,,,,,,,,,
,,,,,,,stim2/pa+45.wav,5d3894798bb75200164c557e,2020-12-29_11h00.54.302,English_step1,2020.2.3,Win32,60,,,,,,,,,,,,,,,,,,right,0.65424,0,3,3,8,1,,,,,,,,,
,,,,,,,stim2/pa+35.wav,5d3894798bb75200164c557e,2020-12-29_11h00.54.302,English_step1,2020.2.3,Win32,60,,,,,,,,,,,,,,,,,,left,1.61384,0,4,4,6,1,,,,,,,,,
,,,,,,,stim2/pa+10.wav,5d3894798bb75200164c557e,2020-12-29_11h00.54.302,English_step1,2020.2.3,Win32,60,,,,,,,,,,,,,,,,,,right,0.71763,0,5,5,1,1,,,,,,,,,
,,,,,,,stim2/pa+30.wav,5d3894798bb75200164c557e,2020-12-29_11h00.54.302,English_step1,2020.2.3,Win32,60,,,,,,,,,,,,,,,,,,right,0.833675,0,6,6,5,1,,,,,,,,,
,,,,,,,stim2/pa-10.wav,5d3894798bb75200164c557e,2020-12-29_11h00.54.302,English_step1,2020.2.3,Win32,60,,,,,,,,,,,,,,,,,,right,0.882795,0,7,7,11,1,,,,,,,,,
,,,,,,,stim2/pa-25.wav,5d3894798bb75200164c557e,2020-12-29_11h00.54.302,English_step1,2020.2.3,Win32,60,,,,,,,,,,,,,,,,,,right,0.783445,0,8,8,14,1,,,,,,,,,
,,,,,,,stim2/pa-35.wav,5d3894798bb75200164c557e,2020-12-29_11h00.54.302,English_step1,2020.2.3,Win32,60,,,,,,,,,,,,,,,,,,right,0.84973,0,9,9,16,1,,,,,,,,,
,,,,,,,stim2/pa-30.wav,5d3894798bb75200164c557e,2020-12-29_11h00.54.302,English_step1,2020.2.3,Win32,60,,,,,,,,,,,,,,,,,,right,0.765245,0,10,10,15,1,,,,,,,,,
,,,,,,,stim2/pa+15.wav,5d3894798bb75200164c557e,2020-12-29_11h00.54.302,English_step1,2020.2.3,Win32,60,,,,,,,,,,,,,,,,,,right,1.615355,0,11,11,2,1,,,,,,,,,
,,,,,,,stim2/pa+05.wav,5d3894798bb75200164c557e,2020-12-29_11h00.54.302,English_step1,2020.2.3,Win32,60,,,,,,,,,,,,,,,,,,left,0.69466,0,12,12,0,1,,,,,,,,,
,,,,,,,stim2/pa+40.wav,5d3894798bb75200164c557e,2020-12-29_11h00.54.302,English_step1,2020.2.3,Win32,60,,,,,,,,,,,,,,,,,,left,0.51867,0,13,13,7,1,,,,,,,,,
,,,,,,,stim2/pa+20.wav,5d3894798bb75200164c557e,2020-12-29_11h00.54.302,English_step1,2020.2.3,Win32,60,,,,,,,,,,,,,,,,,,left,0.658645,0,14,14,3,1,,,,,,,,,
,,,,,,,stim2/pa+25.wav,5d3894798bb75200164c557e,2020-12-29_11h00.54.302,English_step1,2020.2.3,Win32,60,,,,,,,,,,,,,,,,,,left,1.142145,0,15,15,4,1,,,,,,,,,
,,,,,,,stim2/pa-20.wav,5d3894798bb75200164c557e,2020-12-29_11h00.54.302,English_step1,2020.2.3,Win32,60,,,,,,,,,,,,,,,,,,right,0.7541,0,16,16,13,1,,,,,,,,,
,,,,,,,stim2/pa-05.wav,5d3894798bb75200164c557e,2020-12-29_11h00.54.302,English_step1,2020.2.3,Win32,60,,,,,,,,,,,,,,,,,,left,0.55524,1,0,17,10,1,,,,,,,,,
,,,,,,,stim2/pa-35.wav,5d3894798bb75200164c557e,2020-12-29_11h00.54.302,English_step1,2020.2.3,Win32,60,,,,,,,,,,,,,,,,,,right,0.499555,1,1,18,16,1,,,,,,,,,
,,,,,,,stim2/pa+30.wav,5d3894798bb75200164c557e,2020-12-29_11h00.54.302,English_step1,2020.2.3,Win32,60,,,,,,,,,,,,,,,,,,left,0.49929,1,2,19,5,1,,,,,,,,,
,,,,,,,stim2/pa+20.wav,5d3894798bb75200164c557e,2020-12-29_11h00.54.302,English_step1,2020.2.3,Win32,60,,,,,,,,,,,,,,,,,,right,1.70622,1,3,20,3,1,,,,,,,,,
,,,,,,,stim2/pa+35.wav,5d3894798bb75200164c557e,2020-12-29_11h00.54.302,English_step1,2020.2.3,Win32,60,,,,,,,,,,,,,,,,,,right,0.666795,1,4,21,6,1,,,,,,,,,
,,,,,,,stim2/pa+45.wav,5d3894798bb75200164c557e,2020-12-29_11h00.54.302,English_step1,2020.2.3,Win32,60,,,,,,,,,,,,,,,,,,right,1.049035,1,5,22,8,1,,,,,,,,,
,,,,,,,stim2/pa+25.wav,5d3894798bb75200164c557e,2020-12-29_11h00.54.302,English_step1,2020.2.3,Win32,60,,,,,,,,,,,,,,,,,,left,0.43275,1,6,23,4,1,,,,,,,,,
,,,,,,,stim2/pa+50.wav,5d3894798bb75200164c557e,2020-12-29_11h00.54.302,English_step1,2020.2.3,Win32,60,,,,,,,,,,,,,,,,,,right,0.838035,1,7,24,9,1,,,,,,,,,
,,,,,,,stim2/pa-30.wav,5d3894798bb75200164c557e,2020-12-29_11h00.54.302,English_step1,2020.2.3,Win32,60,,,,,,,,,,,,,,,,,,right,0.838775,1,8,25,15,1,,,,,,,,,
,,,,,,,stim2/pa-20.wav,5d3894798bb75200164c557e,2020-12-29_11h00.54.302,English_step1,2020.2.3,Win32,60,,,,,,,,,,,,,,,,,,left,0.66531,1,9,26,13,1,,,,,,,,,
,,,,,,,stim2/pa+40.wav,5d3894798bb75200164c557e,2020-12-29_11h00.54.302,English_step1,2020.2.3,Win32,60,,,,,,,,,,,,,,,,,,right,1.281295,1,10,27,7,1,,,,,,,,,
,,,,,,,stim2/pa+15.wav,5d3894798bb75200164c557e,2020-12-29_11h00.54.302,English_step1,2020.2.3,Win32,60,,,,,,,,,,,,,,,,,,left,0.851785,1,11,28,2,1,,,,,,,,,
,,,,,,,stim2/pa+05.wav,5d3894798bb75200164c557e,2020-12-29_11h00.54.302,English_step1,2020.2.3,Win32,60,,,,,,,,,,,,,,,,,,right,0.788895,1,12,29,0,1,,,,,,,,,
,,,,,,,stim2/pa-15.wav,5d3894798bb75200164c557e,2020-12-29_11h00.54.302,English_step1,2020.2.3,Win32,60,,,,,,,,,,,,,,,,,,right,1.68249,1,13,30,12,1,,,,,,,,,
,,,,,,,stim2/pa-25.wav,5d3894798bb75200164c557e,2020-12-29_11h00.54.302,English_step1,2020.2.3,Win32,60,,,,,,,,,,,,,,,,,,right,0.666385,1,14,31,14,1,,,,,,,,,
,,,,,,,stim2/pa-10.wav,5d3894798bb75200164c557e,2020-12-29_11h00.54.302,English_step1,2020.2.3,Win32,60,,,,,,,,,,,,,,,,,,right,0.815895,1,15,32,11,1,,,,,,,,,
,,,,,,,stim2/pa+10.wav,5d3894798bb75200164c557e,2020-12-29_11h00.54.302,English_step1,2020.2.3,Win32,60,,,,,,,,,,,,,,,,,,left,0.4684,1,16,33,1,1,,,,,,,,,
,,,,,,,stim2/pa+25.wav,5d3894798bb75200164c557e,2020-12-29_11h00.54.302,English_step1,2020.2.3,Win32,60,,,,,,,,,,,,,,,,,,left,0.7843,2,0,34,4,1,,,,,,,,,
,,,,,,,stim2/pa+20.wav,5d3894798bb75200164c557e,2020-12-29_11h00.54.302,English_step1,2020.2.3,Win32,60,,,,,,,,,,,,,,,,,,left,0.45133,2,1,35,3,1,,,,,,,,,
,,,,,,,stim2/pa+50.wav,5d3894798bb75200164c557e,2020-12-29_11h00.54.302,English_step1,2020.2.3,Win32,60,,,,,,,,,,,,,,,,,,left,0.99928,2,2,36,9,1,,,,,,,,,
,,,,,,,stim2/pa+15.wav,5d3894798bb75200164c557e,2020-12-29_11h00.54.302,English_step1,2020.2.3,Win32,60,,,,,,,,,,,,,,,,,,right,2.030625,2,3,37,2,1,,,,,,,,,
,,,,,,,stim2/pa+10.wav,5d3894798bb75200164c557e,2020-12-29_11h00.54.302,English_step1,2020.2.3,Win32,60,,,,,,,,,,,,,,,,,,right,0.78327,2,4,38,1,1,,,,,,,,,
,,,,,,,stim2/pa-20.wav,5d3894798bb75200164c557e,2020-12-29_11h00.54.302,English_step1,2020.2.3,Win32,60,,,,,,,,,,,,,,,,,,right,0.666125,2,5,39,13,1,,,,,,,,,
,,,,,,,stim2/pa+05.wav,5d3894798bb75200164c557e,2020-12-29_11h00.54.302,English_step1,2020.2.3,Win32,60,,,,,,,,,,,,,,,,,,right,0.71662,2,6,40,0,1,,,,,,,,,
,,,,,,,stim2/pa-15.wav,5d3894798bb75200164c557e,2020-12-29_11h00.54.302,English_step1,2020.2.3,Win32,60,,,,,,,,,,,,,,,,,,right,1.183235,2,7,41,12,1,,,,,,,,,
,,,,,,,stim2/pa-10.wav,5d3894798bb75200164c557e,2020-12-29_11h00.54.302,English_step1,2020.2.3,Win32,60,,,,,,,,,,,,,,,,,,right,1.050025,2,8,42,11,1,,,,,,,,,
,,,,,,,stim2/pa-25.wav,5d3894798bb75200164c557e,2020-12-29_11h00.54.302,English_step1,2020.2.3,Win32,60,,,,,,,,,,,,,,,,,,right,1.068125,2,9,43,14,1,,,,,,,,,
,,,,,,,stim2/pa-35.wav,5d3894798bb75200164c557e,2020-12-29_11h00.54.302,English_step1,2020.2.3,Win32,60,,,,,,,,,,,,,,,,,,right,1.448765,2,10,44,16,1,,,,,,,,,
,,,,,,,stim2/pa+35.wav,5d3894798bb75200164c557e,2020-12-29_11h00.54.302,English_step1,2020.2.3,Win32,60,,,,,,,,,,,,,,,,,,left,0.50018,2,11,45,6,1,,,,,,,,,
,,,,,,,stim2/pa+45.wav,5d3894798bb75200164c557e,2020-12-29_11h00.54.302,English_step1,2020.2.3,Win32,60,,,,,,,,,,,,,,,,,,left,0.533155,2,12,46,8,1,,,,,,,,,
,,,,,,,stim2/pa-05.wav,5d3894798bb75200164c557e,2020-12-29_11h00.54.302,English_step1,2020.2.3,Win32,60,,,,,,,,,,,,,,,,,,right,1.067425,2,13,47,10,1,,,,,,,,,
,,,,,,,stim2/pa+30.wav,5d3894798bb75200164c557e,2020-12-29_11h00.54.302,English_step1,2020.2.3,Win32,60,,,,,,,,,,,,,,,,,,left,0.45007,2,14,48,5,1,,,,,,,,,
,,,,,,,stim2/pa-30.wav,5d3894798bb75200164c557e,2020-12-29_11h00.54.302,English_step1,2020.2.3,Win32,60,,,,,,,,,,,,,,,,,,right,0.783555,2,15,49,15,1,,,,,,,,,
,,,,,,,stim2/pa+40.wav,5d3894798bb75200164c557e,2020-12-29_11h00.54.302,English_step1,2020.2.3,Win32,60,,,,,,,,,,,,,,,,,,left,0.634675,2,16,50,7,1,,,,,,,,,
,,,,,,,stim2/pa+15.wav,5d3894798bb75200164c557e,2020-12-29_11h00.54.302,English_step1,2020.2.3,Win32,60,,,,,,,,,,,,,,,,,,left,1.13382,,,,,,q,2.129805,0,0,0,2,1,,
,,,,,,,stim2/pa+40.wav,5d3894798bb75200164c557e,2020-12-29_11h00.54.302,English_step1,2020.2.3,Win32,60,,,,,,,,,,,,,,,,,,left,1.00028,,,,,,,,0,1,1,7,1,,
,,,,,,,stim2/pa+05.wav,5d3894798bb75200164c557e,2020-12-29_11h00.54.302,English_step1,2020.2.3,Win32,60,,,,,,,,,,,,,,,,,,left,0.933,,,,,,,,0,2,2,0,1,,
,,,,,,,stim2/pa-10.wav,5d3894798bb75200164c557e,2020-12-29_11h00.54.302,English_step1,2020.2.3,Win32,60,,,,,,,,,,,,,,,,,,right,1.532585,,,,,,,,0,3,3,11,1,,
,,,,,,,stim2/pa-25.wav,5d3894798bb75200164c557e,2020-12-29_11h00.54.302,English_step1,2020.2.3,Win32,60,,,,,,,,,,,,,,,,,,right,0.699135,,,,,,,,0,4,4,14,1,,
,,,,,,,stim2/pa+45.wav,5d3894798bb75200164c557e,2020-12-29_11h00.54.302,English_step1,2020.2.3,Win32,60,,,,,,,,,,,,,,,,,,right,0.483685,,,,,,,,0,5,5,8,1,,
,,,,,,,stim2/pa-15.wav,5d3894798bb75200164c557e,2020-12-29_11h00.54.302,English_step1,2020.2.3,Win32,60,,,,,,,,,,,,,,,,,,right,2.23032,,,,,,,,0,6,6,12,1,,
,,,,,,,stim2/pa+50.wav,5d3894798bb75200164c557e,2020-12-29_11h00.54.302,English_step1,2020.2.3,Win32,60,,,,,,,,,,,,,,,,,,right,0.56819,,,,,,,,0,7,7,9,1,,
,,,,,,,stim2/pa-30.wav,5d3894798bb75200164c557e,2020-12-29_11h00.54.302,English_step1,2020.2.3,Win32,60,,,,,,,,,,,,,,,,,,right,0.767225,,,,,,,,0,8,8,15,1,,
,,,,,,,stim2/pa+25.wav,5d3894798bb75200164c557e,2020-12-29_11h00.54.302,English_step1,2020.2.3,Win32,60,,,,,,,,,,,,,,,,,,left,0.83446,,,,,,,,0,9,9,4,1,,
,,,,,,,stim2/pa+10.wav,5d3894798bb75200164c557e,2020-12-29_11h00.54.302,English_step1,2020.2.3,Win32,60,,,,,,,,,,,,,,,,,,left,0.51705,,,,,,,,0,10,10,1,1,,
,,,,,,,stim2/pa-05.wav,5d3894798bb75200164c557e,2020-12-29_11h00.54.302,English_step1,2020.2.3,Win32,60,,,,,,,,,,,,,,,,,,right,0.634275,,,,,,,,0,11,11,10,1,,
,,,,,,,stim2/pa-20.wav,5d3894798bb75200164c557e,2020-12-29_11h00.54.302,English_step1,2020.2.3,Win32,60,,,,,,,,,,,,,,,,,,right,0.866325,,,,,,,,0,12,12,13,1,,
,,,,,,,stim2/pa+20.wav,5d3894798bb75200164c557e,2020-12-29_11h00.54.302,English_step1,2020.2.3,Win32,60,,,,,,,,,,,,,,,,,,left,0.833,,,,,,,,0,13,13,3,1,,
,,,,,,,stim2/pa+30.wav,5d3894798bb75200164c557e,2020-12-29_11h00.54.302,English_step1,2020.2.3,Win32,60,,,,,,,,,,,,,,,,,,right,0.51689,,,,,,,,0,14,14,5,1,,
,,,,,,,stim2/pa+35.wav,5d3894798bb75200164c557e,2020-12-29_11h00.54.302,English_step1,2020.2.3,Win32,60,,,,,,,,,,,,,,,,,,right,1.715115,,,,,,,,0,15,15,6,1,,
,,,,,,,stim2/pa-35.wav,5d3894798bb75200164c557e,2020-12-29_11h00.54.302,English_step1,2020.2.3,Win32,60,,,,,,,,,,,,,,,,,,right,0.79969,,,,,,,,0,16,16,16,1,,
,,,,,,,stim2/pa-20.wav,5d3894798bb75200164c557e,2020-12-29_11h00.54.302,English_step1,2020.2.3,Win32,60,,,,,,,,,,,,,,,,,,right,0.832635,,,,,,,,1,0,17,13,1,,
,,,,,,,stim2/pa-15.wav,5d3894798bb75200164c557e,2020-12-29_11h00.54.302,English_step1,2020.2.3,Win32,60,,,,,,,,,,,,,,,,,,right,1.16645,,,,,,,,1,1,18,12,1,,
,,,,,,,stim2/pa+45.wav,5d3894798bb75200164c557e,2020-12-29_11h00.54.302,English_step1,2020.2.3,Win32,60,,,,,,,,,,,,,,,,,,left,1.299145,,,,,,,,1,2,19,8,1,,
,,,,,,,stim2/pa-30.wav,5d3894798bb75200164c557e,2020-12-29_11h00.54.302,English_step1,2020.2.3,Win32,60,,,,,,,,,,,,,,,,,,right,0.73188,,,,,,,,1,3,20,15,1,,
,,,,,,,stim2/pa-25.wav,5d3894798bb75200164c557e,2020-12-29_11h00.54.302,English_step1,2020.2.3,Win32,60,,,,,,,,,,,,,,,,,,right,0.933705,,,,,,,,1,4,21,14,1,,
,,,,,,,stim2/pa+15.wav,5d3894798bb75200164c557e,2020-12-29_11h00.54.302,English_step1,2020.2.3,Win32,60,,,,,,,,,,,,,,,,,,left,0.583055,,,,,,,,1,5,22,2,1,,
,,,,,,,stim2/pa+25.wav,5d3894798bb75200164c557e,2020-12-29_11h00.54.302,English_step1,2020.2.3,Win32,60,,,,,,,,,,,,,,,,,,left,1.215555,,,,,,,,1,6,23,4,1,,
,,,,,,,stim2/pa-05.wav,5d3894798bb75200164c557e,2020-12-29_11h00.54.302,English_step1,2020.2.3,Win32,60,,,,,,,,,,,,,,,,,,right,0.89935,,,,,,,,1,7,24,10,1,,
,,,,,,,stim2/pa+20.wav,5d3894798bb75200164c557e,2020-12-29_11h00.54.302,English_step1,2020.2.3,Win32,60,,,,,,,,,,,,,,,,,,left,0.850315,,,,,,,,1,8,25,3,1,,
,,,,,,,stim2/pa+50.wav,5d3894798bb75200164c557e,2020-12-29_11h00.54.302,English_step1,2020.2.3,Win32,60,,,,,,,,,,,,,,,,,,right,0.6167,,,,,,,,1,9,26,9,1,,
,,,,,,,stim2/pa+10.wav,5d3894798bb75200164c557e,2020-12-29_11h00.54.302,English_step1,2020.2.3,Win32,60,,,,,,,,,,,,,,,,,,left,0.699535,,,,,,,,1,10,27,1,1,,
,,,,,,,stim2/pa+35.wav,5d3894798bb75200164c557e,2020-12-29_11h00.54.302,English_step1,2020.2.3,Win32,60,,,,,,,,,,,,,,,,,,left,0.94918,,,,,,,,1,11,28,6,1,,
,,,,,,,stim2/pa+30.wav,5d3894798bb75200164c557e,2020-12-29_11h00.54.302,English_step1,2020.2.3,Win32,60,,,,,,,,,,,,,,,,,,left,0.4506,,,,,,,,1,12,29,5,1,,
,,,,,,,stim2/pa-35.wav,5d3894798bb75200164c557e,2020-12-29_11h00.54.302,English_step1,2020.2.3,Win32,60,,,,,,,,,,,,,,,,,,right,0.600255,,,,,,,,1,13,30,16,1,,
,,,,,,,stim2/pa+40.wav,5d3894798bb75200164c557e,2020-12-29_11h00.54.302,English_step1,2020.2.3,Win32,60,,,,,,,,,,,,,,,,,,left,1.08322,,,,,,,,1,14,31,7,1,,
,,,,,,,stim2/pa+05.wav,5d3894798bb75200164c557e,2020-12-29_11h00.54.302,English_step1,2020.2.3,Win32,60,,,,,,,,,,,,,,,,,,right,0.550795,,,,,,,,1,15,32,0,1,,
,,,,,,,stim2/pa-10.wav,5d3894798bb75200164c557e,2020-12-29_11h00.54.302,English_step1,2020.2.3,Win32,60,,,,,,,,,,,,,,,,,,right,0.866275,,,,,,,,1,16,33,11,1,,
,,,,,,,,5d3894798bb75200164c557e,2020-12-29_11h00.54.302,English_step1,2020.2.3,Win32,60,,,,,,,,,,,,,,,,,,,,,,,,,,,,,,,,space,3.11692
