resp.keys,resp.rt,trials.thisRepN,trials.thisTrialN,trials.thisN,trials.thisIndex,trials.ran,stimuli,participant,date,expName,psychopyVersion,OS,frameRate,gotResponse.keys,gotResponse.rt,resp_2.keys,resp_2.rt,trials_2.thisRepN,trials_2.thisTrialN,trials_2.thisN,trials_2.thisIndex,trials_2.ran,key_resp_3.keys,key_resp_3.corr,key_resp_3.rt,trials_4.thisRepN,trials_4.thisTrialN,trials_4.thisN,trials_4.thisIndex,trials_4.ran,resp_3.keys,resp_3.rt,trials_3.thisRepN,trials_3.thisTrialN,trials_3.thisN,trials_3.thisIndex,trials_3.ran,key_resp_2.keys,key_resp_2.rt,trials_5.thisRepN,trials_5.thisTrialN,trials_5.thisN,trials_5.thisIndex,trials_5.ran,key_resp.keys,key_resp.rt
right,1.182615,0,0,0,1,1,stim/VC_11.wav,5e3f7b673ba9991dc9cabcfa,2021-01-20_17h13.42.853,English_step1,2020.2.3,Win32,60,,,,,,,,,,,,,,,,,,,,,,,,,,,,,,,,,
left,0.740185,0,1,1,0,1,stim/VC_01.wav,5e3f7b673ba9991dc9cabcfa,2021-01-20_17h13.42.853,English_step1,2020.2.3,Win32,60,,,,,,,,,,,,,,,,,,,,,,,,,,,,,,,,,
,,,,,,,stim/VC_06.wav,5e3f7b673ba9991dc9cabcfa,2021-01-20_17h13.42.853,English_step1,2020.2.3,Win32,60,space,1.266135,left,0.98345,0,0,0,5,1,,,,,,,,,,,,,,,,,,,,,,,,
,,,,,,,stim/VC_11.wav,5e3f7b673ba9991dc9cabcfa,2021-01-20_17h13.42.853,English_step1,2020.2.3,Win32,60,,,right,0.782855,0,1,1,10,1,,,,,,,,,,,,,,,,,,,,,,,,
,,,,,,,stim/VC_04.wav,5e3f7b673ba9991dc9cabcfa,2021-01-20_17h13.42.853,English_step1,2020.2.3,Win32,60,,,left,0.815965,0,2,2,3,1,,,,,,,,,,,,,,,,,,,,,,,,
,,,,,,,stim/VC_07.wav,5e3f7b673ba9991dc9cabcfa,2021-01-20_17h13.42.853,English_step1,2020.2.3,Win32,60,,,right,0.88415,0,3,3,6,1,,,,,,,,,,,,,,,,,,,,,,,,
,,,,,,,stim/VC_01.wav,5e3f7b673ba9991dc9cabcfa,2021-01-20_17h13.42.853,English_step1,2020.2.3,Win32,60,,,left,0.560445,0,4,4,0,1,,,,,,,,,,,,,,,,,,,,,,,,
,,,,,,,stim/VC_09.wav,5e3f7b673ba9991dc9cabcfa,2021-01-20_17h13.42.853,English_step1,2020.2.3,Win32,60,,,right,0.44341,0,5,5,8,1,,,,,,,,,,,,,,,,,,,,,,,,
,,,,,,,stim/VC_08.wav,5e3f7b673ba9991dc9cabcfa,2021-01-20_17h13.42.853,English_step1,2020.2.3,Win32,60,,,right,0.685955,0,6,6,7,1,,,,,,,,,,,,,,,,,,,,,,,,
,,,,,,,stim/VC_02.wav,5e3f7b673ba9991dc9cabcfa,2021-01-20_17h13.42.853,English_step1,2020.2.3,Win32,60,,,left,0.443255,0,7,7,1,1,,,,,,,,,,,,,,,,,,,,,,,,
,,,,,,,stim/VC_03.wav,5e3f7b673ba9991dc9cabcfa,2021-01-20_17h13.42.853,English_step1,2020.2.3,Win32,60,,,left,0.49229,0,8,8,2,1,,,,,,,,,,,,,,,,,,,,,,,,
,,,,,,,stim/VC_05.wav,5e3f7b673ba9991dc9cabcfa,2021-01-20_17h13.42.853,English_step1,2020.2.3,Win32,60,,,left,0.71798,0,9,9,4,1,,,,,,,,,,,,,,,,,,,,,,,,
,,,,,,,stim/VC_10.wav,5e3f7b673ba9991dc9cabcfa,2021-01-20_17h13.42.853,English_step1,2020.2.3,Win32,60,,,right,0.562365,0,10,10,9,1,,,,,,,,,,,,,,,,,,,,,,,,
,,,,,,,stim/VC_04.wav,5e3f7b673ba9991dc9cabcfa,2021-01-20_17h13.42.853,English_step1,2020.2.3,Win32,60,,,right,0.7176,1,0,11,3,1,,,,,,,,,,,,,,,,,,,,,,,,
,,,,,,,stim/VC_06.wav,5e3f7b673ba9991dc9cabcfa,2021-01-20_17h13.42.853,English_step1,2020.2.3,Win32,60,,,left,0.656045,1,1,12,5,1,,,,,,,,,,,,,,,,,,,,,,,,
,,,,,,,stim/VC_03.wav,5e3f7b673ba9991dc9cabcfa,2021-01-20_17h13.42.853,English_step1,2020.2.3,Win32,60,,,left,0.52147,1,2,13,2,1,,,,,,,,,,,,,,,,,,,,,,,,
,,,,,,,stim/VC_08.wav,5e3f7b673ba9991dc9cabcfa,2021-01-20_17h13.42.853,English_step1,2020.2.3,Win32,60,,,right,0.435045,1,3,14,7,1,,,,,,,,,,,,,,,,,,,,,,,,
,,,,,,,stim/VC_01.wav,5e3f7b673ba9991dc9cabcfa,2021-01-20_17h13.42.853,English_step1,2020.2.3,Win32,60,,,left,0.436125,1,4,15,0,1,,,,,,,,,,,,,,,,,,,,,,,,
,,,,,,,stim/VC_10.wav,5e3f7b673ba9991dc9cabcfa,2021-01-20_17h13.42.853,English_step1,2020.2.3,Win32,60,,,right,0.40298,1,5,16,9,1,,,,,,,,,,,,,,,,,,,,,,,,
,,,,,,,stim/VC_11.wav,5e3f7b673ba9991dc9cabcfa,2021-01-20_17h13.42.853,English_step1,2020.2.3,Win32,60,,,right,0.65784,1,6,17,10,1,,,,,,,,,,,,,,,,,,,,,,,,
,,,,,,,stim/VC_05.wav,5e3f7b673ba9991dc9cabcfa,2021-01-20_17h13.42.853,English_step1,2020.2.3,Win32,60,,,left,0.70217,1,7,18,4,1,,,,,,,,,,,,,,,,,,,,,,,,
,,,,,,,stim/VC_07.wav,5e3f7b673ba9991dc9cabcfa,2021-01-20_17h13.42.853,English_step1,2020.2.3,Win32,60,,,left,0.661035,1,8,19,6,1,,,,,,,,,,,,,,,,,,,,,,,,
,,,,,,,stim/VC_02.wav,5e3f7b673ba9991dc9cabcfa,2021-01-20_17h13.42.853,English_step1,2020.2.3,Win32,60,,,left,0.70209,1,9,20,1,1,,,,,,,,,,,,,,,,,,,,,,,,
,,,,,,,stim/VC_09.wav,5e3f7b673ba9991dc9cabcfa,2021-01-20_17h13.42.853,English_step1,2020.2.3,Win32,60,,,right,0.535275,1,10,21,8,1,,,,,,,,,,,,,,,,,,,,,,,,
,,,,,,,stim/VC_09.wav,5e3f7b673ba9991dc9cabcfa,2021-01-20_17h13.42.853,English_step1,2020.2.3,Win32,60,,,right,0.765565,2,0,22,8,1,,,,,,,,,,,,,,,,,,,,,,,,
,,,,,,,stim/VC_02.wav,5e3f7b673ba9991dc9cabcfa,2021-01-20_17h13.42.853,English_step1,2020.2.3,Win32,60,,,left,0.48558,2,1,23,1,1,,,,,,,,,,,,,,,,,,,,,,,,
,,,,,,,stim/VC_08.wav,5e3f7b673ba9991dc9cabcfa,2021-01-20_17h13.42.853,English_step1,2020.2.3,Win32,60,,,right,0.85033,2,2,24,7,1,,,,,,,,,,,,,,,,,,,,,,,,
,,,,,,,stim/VC_05.wav,5e3f7b673ba9991dc9cabcfa,2021-01-20_17h13.42.853,English_step1,2020.2.3,Win32,60,,,left,3.140035,2,3,25,4,1,,,,,,,,,,,,,,,,,,,,,,,,
,,,,,,,stim/VC_11.wav,5e3f7b673ba9991dc9cabcfa,2021-01-20_17h13.42.853,English_step1,2020.2.3,Win32,60,,,right,0.533865,2,4,26,10,1,,,,,,,,,,,,,,,,,,,,,,,,
,,,,,,,stim/VC_10.wav,5e3f7b673ba9991dc9cabcfa,2021-01-20_17h13.42.853,English_step1,2020.2.3,Win32,60,,,right,0.655815,2,5,27,9,1,,,,,,,,,,,,,,,,,,,,,,,,
,,,,,,,stim/VC_03.wav,5e3f7b673ba9991dc9cabcfa,2021-01-20_17h13.42.853,English_step1,2020.2.3,Win32,60,,,left,0.403495,2,6,28,2,1,,,,,,,,,,,,,,,,,,,,,,,,
,,,,,,,stim/VC_01.wav,5e3f7b673ba9991dc9cabcfa,2021-01-20_17h13.42.853,English_step1,2020.2.3,Win32,60,,,left,0.65274,2,7,29,0,1,,,,,,,,,,,,,,,,,,,,,,,,
,,,,,,,stim/VC_04.wav,5e3f7b673ba9991dc9cabcfa,2021-01-20_17h13.42.853,English_step1,2020.2.3,Win32,60,,,left,0.466455,2,8,30,3,1,,,,,,,,,,,,,,,,,,,,,,,,
,,,,,,,stim/VC_07.wav,5e3f7b673ba9991dc9cabcfa,2021-01-20_17h13.42.853,English_step1,2020.2.3,Win32,60,,,right,0.57488,2,9,31,6,1,,,,,,,,,,,,,,,,,,,,,,,,
,,,,,,,stim/VC_06.wav,5e3f7b673ba9991dc9cabcfa,2021-01-20_17h13.42.853,English_step1,2020.2.3,Win32,60,,,left,0.86631,2,10,32,5,1,,,,,,,,,,,,,,,,,,,,,,,,
,,,,,,,stim/VC_06.wav,5e3f7b673ba9991dc9cabcfa,2021-01-20_17h13.42.853,English_step1,2020.2.3,Win32,60,,,left,0.566545,,,,,,4,0,3.880555,0,0,0,5,1,,,,,,,,,,,,,,,,
,,,,,,,stim/VC_01.wav,5e3f7b673ba9991dc9cabcfa,2021-01-20_17h13.42.853,English_step1,2020.2.3,Win32,60,,,left,0.687375,,,,,,,,,0,1,1,0,1,,,,,,,,,,,,,,,,
,,,,,,,stim/VC_04.wav,5e3f7b673ba9991dc9cabcfa,2021-01-20_17h13.42.853,English_step1,2020.2.3,Win32,60,,,left,1.107945,,,,,,,,,0,2,2,3,1,,,,,,,,,,,,,,,,
,,,,,,,stim/VC_09.wav,5e3f7b673ba9991dc9cabcfa,2021-01-20_17h13.42.853,English_step1,2020.2.3,Win32,60,,,right,0.42878,,,,,,,,,0,3,3,8,1,,,,,,,,,,,,,,,,
,,,,,,,stim/VC_03.wav,5e3f7b673ba9991dc9cabcfa,2021-01-20_17h13.42.853,English_step1,2020.2.3,Win32,60,,,left,0.316575,,,,,,,,,0,4,4,2,1,,,,,,,,,,,,,,,,
,,,,,,,stim/VC_02.wav,5e3f7b673ba9991dc9cabcfa,2021-01-20_17h13.42.853,English_step1,2020.2.3,Win32,60,,,left,0.42186,,,,,,,,,0,5,5,1,1,,,,,,,,,,,,,,,,
,,,,,,,stim/VC_11.wav,5e3f7b673ba9991dc9cabcfa,2021-01-20_17h13.42.853,English_step1,2020.2.3,Win32,60,,,right,0.45033,,,,,,,,,0,6,6,10,1,,,,,,,,,,,,,,,,
,,,,,,,stim/VC_07.wav,5e3f7b673ba9991dc9cabcfa,2021-01-20_17h13.42.853,English_step1,2020.2.3,Win32,60,,,right,0.433245,,,,,,,,,0,7,7,6,1,,,,,,,,,,,,,,,,
,,,,,,,stim/VC_05.wav,5e3f7b673ba9991dc9cabcfa,2021-01-20_17h13.42.853,English_step1,2020.2.3,Win32,60,,,left,0.79923,,,,,,,,,0,8,8,4,1,,,,,,,,,,,,,,,,
,,,,,,,stim/VC_10.wav,5e3f7b673ba9991dc9cabcfa,2021-01-20_17h13.42.853,English_step1,2020.2.3,Win32,60,,,right,0.427325,,,,,,,,,0,9,9,9,1,,,,,,,,,,,,,,,,
,,,,,,,stim/VC_08.wav,5e3f7b673ba9991dc9cabcfa,2021-01-20_17h13.42.853,English_step1,2020.2.3,Win32,60,,,right,0.567955,,,,,,,,,0,10,10,7,1,,,,,,,,,,,,,,,,
,,,,,,,stim/VC_02.wav,5e3f7b673ba9991dc9cabcfa,2021-01-20_17h13.42.853,English_step1,2020.2.3,Win32,60,,,left,0.423645,,,,,,,,,1,0,11,1,1,,,,,,,,,,,,,,,,
,,,,,,,stim/VC_06.wav,5e3f7b673ba9991dc9cabcfa,2021-01-20_17h13.42.853,English_step1,2020.2.3,Win32,60,,,left,0.92757,,,,,,,,,1,1,12,5,1,,,,,,,,,,,,,,,,
,,,,,,,stim/VC_10.wav,5e3f7b673ba9991dc9cabcfa,2021-01-20_17h13.42.853,English_step1,2020.2.3,Win32,60,,,right,0.559005,,,,,,,,,1,2,13,9,1,,,,,,,,,,,,,,,,
,,,,,,,stim/VC_08.wav,5e3f7b673ba9991dc9cabcfa,2021-01-20_17h13.42.853,English_step1,2020.2.3,Win32,60,,,right,0.508225,,,,,,,,,1,3,14,7,1,,,,,,,,,,,,,,,,
,,,,,,,stim/VC_09.wav,5e3f7b673ba9991dc9cabcfa,2021-01-20_17h13.42.853,English_step1,2020.2.3,Win32,60,,,right,0.637035,,,,,,,,,1,4,15,8,1,,,,,,,,,,,,,,,,
,,,,,,,stim/VC_04.wav,5e3f7b673ba9991dc9cabcfa,2021-01-20_17h13.42.853,English_step1,2020.2.3,Win32,60,,,left,0.3558,,,,,,,,,1,5,16,3,1,,,,,,,,,,,,,,,,
,,,,,,,stim/VC_11.wav,5e3f7b673ba9991dc9cabcfa,2021-01-20_17h13.42.853,English_step1,2020.2.3,Win32,60,,,right,0.417425,,,,,,,,,1,6,17,10,1,,,,,,,,,,,,,,,,
,,,,,,,stim/VC_03.wav,5e3f7b673ba9991dc9cabcfa,2021-01-20_17h13.42.853,English_step1,2020.2.3,Win32,60,,,left,0.37609,,,,,,,,,1,7,18,2,1,,,,,,,,,,,,,,,,
,,,,,,,stim/VC_01.wav,5e3f7b673ba9991dc9cabcfa,2021-01-20_17h13.42.853,English_step1,2020.2.3,Win32,60,,,left,0.47405,,,,,,,,,1,8,19,0,1,,,,,,,,,,,,,,,,
,,,,,,,stim/VC_05.wav,5e3f7b673ba9991dc9cabcfa,2021-01-20_17h13.42.853,English_step1,2020.2.3,Win32,60,,,right,0.53243,,,,,,,,,1,9,20,4,1,,,,,,,,,,,,,,,,
,,,,,,,stim/VC_07.wav,5e3f7b673ba9991dc9cabcfa,2021-01-20_17h13.42.853,English_step1,2020.2.3,Win32,60,,,right,0.649995,,,,,,,,,1,10,21,6,1,,,,,,,,,,,,,,,,
,,,,,,,stim2/pa+50.wav,5e3f7b673ba9991dc9cabcfa,2021-01-20_17h13.42.853,English_step1,2020.2.3,Win32,60,,,,,,,,,,,,,,,,,,left,1.1622,0,0,0,9,1,,,,,,,,,
,,,,,,,stim2/pa+15.wav,5e3f7b673ba9991dc9cabcfa,2021-01-20_17h13.42.853,English_step1,2020.2.3,Win32,60,,,,,,,,,,,,,,,,,,left,0.39379,0,1,1,2,1,,,,,,,,,
,,,,,,,stim2/pa-35.wav,5e3f7b673ba9991dc9cabcfa,2021-01-20_17h13.42.853,English_step1,2020.2.3,Win32,60,,,,,,,,,,,,,,,,,,left,0.58319,0,2,2,16,1,,,,,,,,,
,,,,,,,stim2/pa-20.wav,5e3f7b673ba9991dc9cabcfa,2021-01-20_17h13.42.853,English_step1,2020.2.3,Win32,60,,,,,,,,,,,,,,,,,,right,0.569605,0,3,3,13,1,,,,,,,,,
,,,,,,,stim2/pa-05.wav,5e3f7b673ba9991dc9cabcfa,2021-01-20_17h13.42.853,English_step1,2020.2.3,Win32,60,,,,,,,,,,,,,,,,,,right,0.45067,0,4,4,10,1,,,,,,,,,
,,,,,,,stim2/pa+05.wav,5e3f7b673ba9991dc9cabcfa,2021-01-20_17h13.42.853,English_step1,2020.2.3,Win32,60,,,,,,,,,,,,,,,,,,left,0.500185,0,5,5,0,1,,,,,,,,,
,,,,,,,stim2/pa+20.wav,5e3f7b673ba9991dc9cabcfa,2021-01-20_17h13.42.853,English_step1,2020.2.3,Win32,60,,,,,,,,,,,,,,,,,,left,1.01709,0,6,6,3,1,,,,,,,,,
,,,,,,,stim2/pa+30.wav,5e3f7b673ba9991dc9cabcfa,2021-01-20_17h13.42.853,English_step1,2020.2.3,Win32,60,,,,,,,,,,,,,,,,,,left,0.62028,0,7,7,5,1,,,,,,,,,
,,,,,,,stim2/pa+40.wav,5e3f7b673ba9991dc9cabcfa,2021-01-20_17h13.42.853,English_step1,2020.2.3,Win32,60,,,,,,,,,,,,,,,,,,right,0.646685,0,8,8,7,1,,,,,,,,,
,,,,,,,stim2/pa-25.wav,5e3f7b673ba9991dc9cabcfa,2021-01-20_17h13.42.853,English_step1,2020.2.3,Win32,60,,,,,,,,,,,,,,,,,,right,0.70948,0,9,9,14,1,,,,,,,,,
,,,,,,,stim2/pa-10.wav,5e3f7b673ba9991dc9cabcfa,2021-01-20_17h13.42.853,English_step1,2020.2.3,Win32,60,,,,,,,,,,,,,,,,,,left,0.52609,0,10,10,11,1,,,,,,,,,
,,,,,,,stim2/pa+45.wav,5e3f7b673ba9991dc9cabcfa,2021-01-20_17h13.42.853,English_step1,2020.2.3,Win32,60,,,,,,,,,,,,,,,,,,left,0.70874,0,11,11,8,1,,,,,,,,,
,,,,,,,stim2/pa+35.wav,5e3f7b673ba9991dc9cabcfa,2021-01-20_17h13.42.853,English_step1,2020.2.3,Win32,60,,,,,,,,,,,,,,,,,,left,0.6166,0,12,12,6,1,,,,,,,,,
,,,,,,,stim2/pa-15.wav,5e3f7b673ba9991dc9cabcfa,2021-01-20_17h13.42.853,English_step1,2020.2.3,Win32,60,,,,,,,,,,,,,,,,,,left,0.43377,0,13,13,12,1,,,,,,,,,
,,,,,,,stim2/pa+25.wav,5e3f7b673ba9991dc9cabcfa,2021-01-20_17h13.42.853,English_step1,2020.2.3,Win32,60,,,,,,,,,,,,,,,,,,left,0.39018,0,14,14,4,1,,,,,,,,,
,,,,,,,stim2/pa-30.wav,5e3f7b673ba9991dc9cabcfa,2021-01-20_17h13.42.853,English_step1,2020.2.3,Win32,60,,,,,,,,,,,,,,,,,,right,0.608405,0,15,15,15,1,,,,,,,,,
,,,,,,,stim2/pa+10.wav,5e3f7b673ba9991dc9cabcfa,2021-01-20_17h13.42.853,English_step1,2020.2.3,Win32,60,,,,,,,,,,,,,,,,,,left,0.45281,0,16,16,1,1,,,,,,,,,
,,,,,,,stim2/pa+35.wav,5e3f7b673ba9991dc9cabcfa,2021-01-20_17h13.42.853,English_step1,2020.2.3,Win32,60,,,,,,,,,,,,,,,,,,right,0.491965,1,0,17,6,1,,,,,,,,,
,,,,,,,stim2/pa-35.wav,5e3f7b673ba9991dc9cabcfa,2021-01-20_17h13.42.853,English_step1,2020.2.3,Win32,60,,,,,,,,,,,,,,,,,,right,0.594685,1,1,18,16,1,,,,,,,,,
,,,,,,,stim2/pa+45.wav,5e3f7b673ba9991dc9cabcfa,2021-01-20_17h13.42.853,English_step1,2020.2.3,Win32,60,,,,,,,,,,,,,,,,,,left,0.500005,1,2,19,8,1,,,,,,,,,
,,,,,,,stim2/pa-05.wav,5e3f7b673ba9991dc9cabcfa,2021-01-20_17h13.42.853,English_step1,2020.2.3,Win32,60,,,,,,,,,,,,,,,,,,right,0.53307,1,3,20,10,1,,,,,,,,,
,,,,,,,stim2/pa+40.wav,5e3f7b673ba9991dc9cabcfa,2021-01-20_17h13.42.853,English_step1,2020.2.3,Win32,60,,,,,,,,,,,,,,,,,,left,0.37912,1,4,21,7,1,,,,,,,,,
,,,,,,,stim2/pa-25.wav,5e3f7b673ba9991dc9cabcfa,2021-01-20_17h13.42.853,English_step1,2020.2.3,Win32,60,,,,,,,,,,,,,,,,,,right,0.39597,1,5,22,14,1,,,,,,,,,
,,,,,,,stim2/pa+50.wav,5e3f7b673ba9991dc9cabcfa,2021-01-20_17h13.42.853,English_step1,2020.2.3,Win32,60,,,,,,,,,,,,,,,,,,left,0.383695,1,6,23,9,1,,,,,,,,,
,,,,,,,stim2/pa+15.wav,5e3f7b673ba9991dc9cabcfa,2021-01-20_17h13.42.853,English_step1,2020.2.3,Win32,60,,,,,,,,,,,,,,,,,,right,0.503855,1,7,24,2,1,,,,,,,,,
,,,,,,,stim2/pa-10.wav,5e3f7b673ba9991dc9cabcfa,2021-01-20_17h13.42.853,English_step1,2020.2.3,Win32,60,,,,,,,,,,,,,,,,,,right,0.594405,1,8,25,11,1,,,,,,,,,
,,,,,,,stim2/pa+05.wav,5e3f7b673ba9991dc9cabcfa,2021-01-20_17h13.42.853,English_step1,2020.2.3,Win32,60,,,,,,,,,,,,,,,,,,right,0.47143,1,9,26,0,1,,,,,,,,,
,,,,,,,stim2/pa-30.wav,5e3f7b673ba9991dc9cabcfa,2021-01-20_17h13.42.853,English_step1,2020.2.3,Win32,60,,,,,,,,,,,,,,,,,,right,0.456435,1,10,27,15,1,,,,,,,,,
,,,,,,,stim2/pa+10.wav,5e3f7b673ba9991dc9cabcfa,2021-01-20_17h13.42.853,English_step1,2020.2.3,Win32,60,,,,,,,,,,,,,,,,,,right,0.450685,1,11,28,1,1,,,,,,,,,
,,,,,,,stim2/pa+30.wav,5e3f7b673ba9991dc9cabcfa,2021-01-20_17h13.42.853,English_step1,2020.2.3,Win32,60,,,,,,,,,,,,,,,,,,right,0.452435,1,12,29,5,1,,,,,,,,,
,,,,,,,stim2/pa-20.wav,5e3f7b673ba9991dc9cabcfa,2021-01-20_17h13.42.853,English_step1,2020.2.3,Win32,60,,,,,,,,,,,,,,,,,,right,0.40022,1,13,30,13,1,,,,,,,,,
,,,,,,,stim2/pa+25.wav,5e3f7b673ba9991dc9cabcfa,2021-01-20_17h13.42.853,English_step1,2020.2.3,Win32,60,,,,,,,,,,,,,,,,,,right,0.35362,1,14,31,4,1,,,,,,,,,
,,,,,,,stim2/pa-15.wav,5e3f7b673ba9991dc9cabcfa,2021-01-20_17h13.42.853,English_step1,2020.2.3,Win32,60,,,,,,,,,,,,,,,,,,right,0.312975,1,15,32,12,1,,,,,,,,,
,,,,,,,stim2/pa+20.wav,5e3f7b673ba9991dc9cabcfa,2021-01-20_17h13.42.853,English_step1,2020.2.3,Win32,60,,,,,,,,,,,,,,,,,,right,0.316775,1,16,33,3,1,,,,,,,,,
,,,,,,,stim2/pa+05.wav,5e3f7b673ba9991dc9cabcfa,2021-01-20_17h13.42.853,English_step1,2020.2.3,Win32,60,,,,,,,,,,,,,,,,,,right,0.524945,2,0,34,0,1,,,,,,,,,
,,,,,,,stim2/pa-25.wav,5e3f7b673ba9991dc9cabcfa,2021-01-20_17h13.42.853,English_step1,2020.2.3,Win32,60,,,,,,,,,,,,,,,,,,right,0.50035,2,1,35,14,1,,,,,,,,,
,,,,,,,stim2/pa-20.wav,5e3f7b673ba9991dc9cabcfa,2021-01-20_17h13.42.853,English_step1,2020.2.3,Win32,60,,,,,,,,,,,,,,,,,,right,0.30397,2,2,36,13,1,,,,,,,,,
,,,,,,,stim2/pa+15.wav,5e3f7b673ba9991dc9cabcfa,2021-01-20_17h13.42.853,English_step1,2020.2.3,Win32,60,,,,,,,,,,,,,,,,,,right,0.318995,2,3,37,2,1,,,,,,,,,
,,,,,,,stim2/pa-10.wav,5e3f7b673ba9991dc9cabcfa,2021-01-20_17h13.42.853,English_step1,2020.2.3,Win32,60,,,,,,,,,,,,,,,,,,right,0.51754,2,4,38,11,1,,,,,,,,,
,,,,,,,stim2/pa+40.wav,5e3f7b673ba9991dc9cabcfa,2021-01-20_17h13.42.853,English_step1,2020.2.3,Win32,60,,,,,,,,,,,,,,,,,,right,0.560405,2,5,39,7,1,,,,,,,,,
,,,,,,,stim2/pa-35.wav,5e3f7b673ba9991dc9cabcfa,2021-01-20_17h13.42.853,English_step1,2020.2.3,Win32,60,,,,,,,,,,,,,,,,,,right,0.55048,2,6,40,16,1,,,,,,,,,
,,,,,,,stim2/pa+10.wav,5e3f7b673ba9991dc9cabcfa,2021-01-20_17h13.42.853,English_step1,2020.2.3,Win32,60,,,,,,,,,,,,,,,,,,left,0.62426,2,7,41,1,1,,,,,,,,,
,,,,,,,stim2/pa+20.wav,5e3f7b673ba9991dc9cabcfa,2021-01-20_17h13.42.853,English_step1,2020.2.3,Win32,60,,,,,,,,,,,,,,,,,,left,0.49502,2,8,42,3,1,,,,,,,,,
,,,,,,,stim2/pa+35.wav,5e3f7b673ba9991dc9cabcfa,2021-01-20_17h13.42.853,English_step1,2020.2.3,Win32,60,,,,,,,,,,,,,,,,,,left,0.408665,2,9,43,6,1,,,,,,,,,
,,,,,,,stim2/pa-15.wav,5e3f7b673ba9991dc9cabcfa,2021-01-20_17h13.42.853,English_step1,2020.2.3,Win32,60,,,,,,,,,,,,,,,,,,left,0.457925,2,10,44,12,1,,,,,,,,,
,,,,,,,stim2/pa+25.wav,5e3f7b673ba9991dc9cabcfa,2021-01-20_17h13.42.853,English_step1,2020.2.3,Win32,60,,,,,,,,,,,,,,,,,,left,0.337895,2,11,45,4,1,,,,,,,,,
,,,,,,,stim2/pa-05.wav,5e3f7b673ba9991dc9cabcfa,2021-01-20_17h13.42.853,English_step1,2020.2.3,Win32,60,,,,,,,,,,,,,,,,,,left,0.38389,2,12,46,10,1,,,,,,,,,
,,,,,,,stim2/pa+30.wav,5e3f7b673ba9991dc9cabcfa,2021-01-20_17h13.42.853,English_step1,2020.2.3,Win32,60,,,,,,,,,,,,,,,,,,left,0.34316,2,13,47,5,1,,,,,,,,,
,,,,,,,stim2/pa+50.wav,5e3f7b673ba9991dc9cabcfa,2021-01-20_17h13.42.853,English_step1,2020.2.3,Win32,60,,,,,,,,,,,,,,,,,,left,0.674635,2,14,48,9,1,,,,,,,,,
,,,,,,,stim2/pa-30.wav,5e3f7b673ba9991dc9cabcfa,2021-01-20_17h13.42.853,English_step1,2020.2.3,Win32,60,,,,,,,,,,,,,,,,,,right,0.790175,2,15,49,15,1,,,,,,,,,
,,,,,,,stim2/pa+45.wav,5e3f7b673ba9991dc9cabcfa,2021-01-20_17h13.42.853,English_step1,2020.2.3,Win32,60,,,,,,,,,,,,,,,,,,right,1.176365,2,16,50,8,1,,,,,,,,,
,,,,,,,stim2/pa-15.wav,5e3f7b673ba9991dc9cabcfa,2021-01-20_17h13.42.853,English_step1,2020.2.3,Win32,60,,,,,,,,,,,,,,,,,,left,0.76276,,,,,,q,2.34322,0,0,0,12,1,,
,,,,,,,stim2/pa+05.wav,5e3f7b673ba9991dc9cabcfa,2021-01-20_17h13.42.853,English_step1,2020.2.3,Win32,60,,,,,,,,,,,,,,,,,,right,0.386255,,,,,,,,0,1,1,0,1,,
,,,,,,,stim2/pa-35.wav,5e3f7b673ba9991dc9cabcfa,2021-01-20_17h13.42.853,English_step1,2020.2.3,Win32,60,,,,,,,,,,,,,,,,,,right,0.74485,,,,,,,,0,2,2,16,1,,
,,,,,,,stim2/pa+40.wav,5e3f7b673ba9991dc9cabcfa,2021-01-20_17h13.42.853,English_step1,2020.2.3,Win32,60,,,,,,,,,,,,,,,,,,left,0.46744,,,,,,,,0,3,3,7,1,,
,,,,,,,stim2/pa-20.wav,5e3f7b673ba9991dc9cabcfa,2021-01-20_17h13.42.853,English_step1,2020.2.3,Win32,60,,,,,,,,,,,,,,,,,,right,0.444965,,,,,,,,0,4,4,13,1,,
,,,,,,,stim2/pa-05.wav,5e3f7b673ba9991dc9cabcfa,2021-01-20_17h13.42.853,English_step1,2020.2.3,Win32,60,,,,,,,,,,,,,,,,,,left,0.54985,,,,,,,,0,5,5,10,1,,
,,,,,,,stim2/pa+20.wav,5e3f7b673ba9991dc9cabcfa,2021-01-20_17h13.42.853,English_step1,2020.2.3,Win32,60,,,,,,,,,,,,,,,,,,right,0.38726,,,,,,,,0,6,6,3,1,,
,,,,,,,stim2/pa+15.wav,5e3f7b673ba9991dc9cabcfa,2021-01-20_17h13.42.853,English_step1,2020.2.3,Win32,60,,,,,,,,,,,,,,,,,,left,0.383685,,,,,,,,0,7,7,2,1,,
,,,,,,,stim2/pa+30.wav,5e3f7b673ba9991dc9cabcfa,2021-01-20_17h13.42.853,English_step1,2020.2.3,Win32,60,,,,,,,,,,,,,,,,,,right,0.40229,,,,,,,,0,8,8,5,1,,
,,,,,,,stim2/pa-25.wav,5e3f7b673ba9991dc9cabcfa,2021-01-20_17h13.42.853,English_step1,2020.2.3,Win32,60,,,,,,,,,,,,,,,,,,right,0.558335,,,,,,,,0,9,9,14,1,,
,,,,,,,stim2/pa+25.wav,5e3f7b673ba9991dc9cabcfa,2021-01-20_17h13.42.853,English_step1,2020.2.3,Win32,60,,,,,,,,,,,,,,,,,,right,0.740225,,,,,,,,0,10,10,4,1,,
,,,,,,,stim2/pa+10.wav,5e3f7b673ba9991dc9cabcfa,2021-01-20_17h13.42.853,English_step1,2020.2.3,Win32,60,,,,,,,,,,,,,,,,,,right,0.702915,,,,,,,,0,11,11,1,1,,
,,,,,,,stim2/pa+50.wav,5e3f7b673ba9991dc9cabcfa,2021-01-20_17h13.42.853,English_step1,2020.2.3,Win32,60,,,,,,,,,,,,,,,,,,right,0.46634,,,,,,,,0,12,12,9,1,,
,,,,,,,stim2/pa+45.wav,5e3f7b673ba9991dc9cabcfa,2021-01-20_17h13.42.853,English_step1,2020.2.3,Win32,60,,,,,,,,,,,,,,,,,,right,0.634185,,,,,,,,0,13,13,8,1,,
,,,,,,,stim2/pa-10.wav,5e3f7b673ba9991dc9cabcfa,2021-01-20_17h13.42.853,English_step1,2020.2.3,Win32,60,,,,,,,,,,,,,,,,,,left,0.38584,,,,,,,,0,14,14,11,1,,
,,,,,,,stim2/pa+35.wav,5e3f7b673ba9991dc9cabcfa,2021-01-20_17h13.42.853,English_step1,2020.2.3,Win32,60,,,,,,,,,,,,,,,,,,right,0.444545,,,,,,,,0,15,15,6,1,,
,,,,,,,stim2/pa-30.wav,5e3f7b673ba9991dc9cabcfa,2021-01-20_17h13.42.853,English_step1,2020.2.3,Win32,60,,,,,,,,,,,,,,,,,,right,0.70433,,,,,,,,0,16,16,15,1,,
,,,,,,,stim2/pa+10.wav,5e3f7b673ba9991dc9cabcfa,2021-01-20_17h13.42.853,English_step1,2020.2.3,Win32,60,,,,,,,,,,,,,,,,,,right,0.483975,,,,,,,,1,0,17,1,1,,
,,,,,,,stim2/pa-20.wav,5e3f7b673ba9991dc9cabcfa,2021-01-20_17h13.42.853,English_step1,2020.2.3,Win32,60,,,,,,,,,,,,,,,,,,left,0.454775,,,,,,,,1,1,18,13,1,,
,,,,,,,stim2/pa-25.wav,5e3f7b673ba9991dc9cabcfa,2021-01-20_17h13.42.853,English_step1,2020.2.3,Win32,60,,,,,,,,,,,,,,,,,,right,0.25071,,,,,,,,1,2,19,14,1,,
,,,,,,,stim2/pa-30.wav,5e3f7b673ba9991dc9cabcfa,2021-01-20_17h13.42.853,English_step1,2020.2.3,Win32,60,,,,,,,,,,,,,,,,,,right,0.766445,,,,,,,,1,3,20,15,1,,
,,,,,,,stim2/pa+35.wav,5e3f7b673ba9991dc9cabcfa,2021-01-20_17h13.42.853,English_step1,2020.2.3,Win32,60,,,,,,,,,,,,,,,,,,left,0.417225,,,,,,,,1,4,21,6,1,,
,,,,,,,stim2/pa+15.wav,5e3f7b673ba9991dc9cabcfa,2021-01-20_17h13.42.853,English_step1,2020.2.3,Win32,60,,,,,,,,,,,,,,,,,,left,0.80406,,,,,,,,1,5,22,2,1,,
,,,,,,,stim2/pa+50.wav,5e3f7b673ba9991dc9cabcfa,2021-01-20_17h13.42.853,English_step1,2020.2.3,Win32,60,,,,,,,,,,,,,,,,,,left,0.9198,,,,,,,,1,6,23,9,1,,
,,,,,,,stim2/pa+30.wav,5e3f7b673ba9991dc9cabcfa,2021-01-20_17h13.42.853,English_step1,2020.2.3,Win32,60,,,,,,,,,,,,,,,,,,left,0.5232,,,,,,,,1,7,24,5,1,,
,,,,,,,stim2/pa+25.wav,5e3f7b673ba9991dc9cabcfa,2021-01-20_17h13.42.853,English_step1,2020.2.3,Win32,60,,,,,,,,,,,,,,,,,,left,0.40359,,,,,,,,1,8,25,4,1,,
,,,,,,,stim2/pa-35.wav,5e3f7b673ba9991dc9cabcfa,2021-01-20_17h13.42.853,English_step1,2020.2.3,Win32,60,,,,,,,,,,,,,,,,,,right,0.559565,,,,,,,,1,9,26,16,1,,
,,,,,,,stim2/pa-05.wav,5e3f7b673ba9991dc9cabcfa,2021-01-20_17h13.42.853,English_step1,2020.2.3,Win32,60,,,,,,,,,,,,,,,,,,right,0.437355,,,,,,,,1,10,27,10,1,,
,,,,,,,stim2/pa+05.wav,5e3f7b673ba9991dc9cabcfa,2021-01-20_17h13.42.853,English_step1,2020.2.3,Win32,60,,,,,,,,,,,,,,,,,,left,0.68357,,,,,,,,1,11,28,0,1,,
,,,,,,,stim2/pa-10.wav,5e3f7b673ba9991dc9cabcfa,2021-01-20_17h13.42.853,English_step1,2020.2.3,Win32,60,,,,,,,,,,,,,,,,,,right,0.64301,,,,,,,,1,12,29,11,1,,
,,,,,,,stim2/pa+20.wav,5e3f7b673ba9991dc9cabcfa,2021-01-20_17h13.42.853,English_step1,2020.2.3,Win32,60,,,,,,,,,,,,,,,,,,left,0.83533,,,,,,,,1,13,30,3,1,,
,,,,,,,stim2/pa+45.wav,5e3f7b673ba9991dc9cabcfa,2021-01-20_17h13.42.853,English_step1,2020.2.3,Win32,60,,,,,,,,,,,,,,,,,,left,0.488985,,,,,,,,1,14,31,8,1,,
,,,,,,,stim2/pa+40.wav,5e3f7b673ba9991dc9cabcfa,2021-01-20_17h13.42.853,English_step1,2020.2.3,Win32,60,,,,,,,,,,,,,,,,,,left,0.50503,,,,,,,,1,15,32,7,1,,
,,,,,,,stim2/pa-15.wav,5e3f7b673ba9991dc9cabcfa,2021-01-20_17h13.42.853,English_step1,2020.2.3,Win32,60,,,,,,,,,,,,,,,,,,left,0.27726,,,,,,,,1,16,33,12,1,,
,,,,,,,,5e3f7b673ba9991dc9cabcfa,2021-01-20_17h13.42.853,English_step1,2020.2.3,Win32,60,,,,,,,,,,,,,,,,,,,,,,,,,,,,,,,,space,13.821665
