resp.keys,resp.rt,trials.thisRepN,trials.thisTrialN,trials.thisN,trials.thisIndex,trials.ran,stimuli,participant,date,expName,psychopyVersion,OS,frameRate,gotResponse.keys,gotResponse.rt,resp_2.keys,resp_2.rt,trials_2.thisRepN,trials_2.thisTrialN,trials_2.thisN,trials_2.thisIndex,trials_2.ran,key_resp_3.keys,key_resp_3.rt,trials_4.thisRepN,trials_4.thisTrialN,trials_4.thisN,trials_4.thisIndex,trials_4.ran,resp_3.keys,resp_3.rt,trials_3.thisRepN,trials_3.thisTrialN,trials_3.thisN,trials_3.thisIndex,trials_3.ran,key_resp_2.keys,key_resp_2.rt,trials_5.thisRepN,trials_5.thisTrialN,trials_5.thisN,trials_5.thisIndex,trials_5.ran,key_resp.keys,key_resp.rt
right,1.21589,0,0,0,1,1,stim/VC_11.wav,5eaf0e378f26940719d2b02e,2021-01-21_20h05.59.747,Hungarian_step4,2020.2.3,Win32,60,,,,,,,,,,,,,,,,,,,,,,,,,,,,,,,,
left,0.775355,0,1,1,0,1,stim/VC_01.wav,5eaf0e378f26940719d2b02e,2021-01-21_20h05.59.747,Hungarian_step4,2020.2.3,Win32,60,,,,,,,,,,,,,,,,,,,,,,,,,,,,,,,,
,,,,,,,stim/VC_01.wav,5eaf0e378f26940719d2b02e,2021-01-21_20h05.59.747,Hungarian_step4,2020.2.3,Win32,60,space,2.172185,left,0.98686,0,0,0,0,1,,,,,,,,,,,,,,,,,,,,,,,
,,,,,,,stim/VC_06.wav,5eaf0e378f26940719d2b02e,2021-01-21_20h05.59.747,Hungarian_step4,2020.2.3,Win32,60,,,right,0.81814,0,1,1,5,1,,,,,,,,,,,,,,,,,,,,,,,
,,,,,,,stim/VC_05.wav,5eaf0e378f26940719d2b02e,2021-01-21_20h05.59.747,Hungarian_step4,2020.2.3,Win32,60,,,right,2.81814,0,2,2,4,1,,,,,,,,,,,,,,,,,,,,,,,
,,,,,,,stim/VC_08.wav,5eaf0e378f26940719d2b02e,2021-01-21_20h05.59.747,Hungarian_step4,2020.2.3,Win32,60,,,right,0.990585,0,3,3,7,1,,,,,,,,,,,,,,,,,,,,,,,
,,,,,,,stim/VC_02.wav,5eaf0e378f26940719d2b02e,2021-01-21_20h05.59.747,Hungarian_step4,2020.2.3,Win32,60,,,left,0.5238,0,4,4,1,1,,,,,,,,,,,,,,,,,,,,,,,
,,,,,,,stim/VC_09.wav,5eaf0e378f26940719d2b02e,2021-01-21_20h05.59.747,Hungarian_step4,2020.2.3,Win32,60,,,right,0.86771,0,5,5,8,1,,,,,,,,,,,,,,,,,,,,,,,
,,,,,,,stim/VC_07.wav,5eaf0e378f26940719d2b02e,2021-01-21_20h05.59.747,Hungarian_step4,2020.2.3,Win32,60,,,right,0.858485,0,6,6,6,1,,,,,,,,,,,,,,,,,,,,,,,
,,,,,,,stim/VC_11.wav,5eaf0e378f26940719d2b02e,2021-01-21_20h05.59.747,Hungarian_step4,2020.2.3,Win32,60,,,right,0.80247,0,7,7,10,1,,,,,,,,,,,,,,,,,,,,,,,
,,,,,,,stim/VC_10.wav,5eaf0e378f26940719d2b02e,2021-01-21_20h05.59.747,Hungarian_step4,2020.2.3,Win32,60,,,right,0.657915,0,8,8,9,1,,,,,,,,,,,,,,,,,,,,,,,
,,,,,,,stim/VC_03.wav,5eaf0e378f26940719d2b02e,2021-01-21_20h05.59.747,Hungarian_step4,2020.2.3,Win32,60,,,left,0.788075,0,9,9,2,1,,,,,,,,,,,,,,,,,,,,,,,
,,,,,,,stim/VC_04.wav,5eaf0e378f26940719d2b02e,2021-01-21_20h05.59.747,Hungarian_step4,2020.2.3,Win32,60,,,left,0.857995,0,10,10,3,1,,,,,,,,,,,,,,,,,,,,,,,
,,,,,,,stim/VC_03.wav,5eaf0e378f26940719d2b02e,2021-01-21_20h05.59.747,Hungarian_step4,2020.2.3,Win32,60,,,left,1.085265,1,0,11,2,1,,,,,,,,,,,,,,,,,,,,,,,
,,,,,,,stim/VC_08.wav,5eaf0e378f26940719d2b02e,2021-01-21_20h05.59.747,Hungarian_step4,2020.2.3,Win32,60,,,right,0.55277,1,1,12,7,1,,,,,,,,,,,,,,,,,,,,,,,
,,,,,,,stim/VC_10.wav,5eaf0e378f26940719d2b02e,2021-01-21_20h05.59.747,Hungarian_step4,2020.2.3,Win32,60,,,right,0.72778,1,2,13,9,1,,,,,,,,,,,,,,,,,,,,,,,
,,,,,,,stim/VC_09.wav,5eaf0e378f26940719d2b02e,2021-01-21_20h05.59.747,Hungarian_step4,2020.2.3,Win32,60,,,right,0.58931,1,3,14,8,1,,,,,,,,,,,,,,,,,,,,,,,
,,,,,,,stim/VC_11.wav,5eaf0e378f26940719d2b02e,2021-01-21_20h05.59.747,Hungarian_step4,2020.2.3,Win32,60,,,right,0.925815,1,4,15,10,1,,,,,,,,,,,,,,,,,,,,,,,
,,,,,,,stim/VC_01.wav,5eaf0e378f26940719d2b02e,2021-01-21_20h05.59.747,Hungarian_step4,2020.2.3,Win32,60,,,left,0.532725,1,5,16,0,1,,,,,,,,,,,,,,,,,,,,,,,
,,,,,,,stim/VC_07.wav,5eaf0e378f26940719d2b02e,2021-01-21_20h05.59.747,Hungarian_step4,2020.2.3,Win32,60,,,right,0.60073,1,6,17,6,1,,,,,,,,,,,,,,,,,,,,,,,
,,,,,,,stim/VC_02.wav,5eaf0e378f26940719d2b02e,2021-01-21_20h05.59.747,Hungarian_step4,2020.2.3,Win32,60,,,left,0.856015,1,7,18,1,1,,,,,,,,,,,,,,,,,,,,,,,
,,,,,,,stim/VC_05.wav,5eaf0e378f26940719d2b02e,2021-01-21_20h05.59.747,Hungarian_step4,2020.2.3,Win32,60,,,right,1.25558,1,8,19,4,1,,,,,,,,,,,,,,,,,,,,,,,
,,,,,,,stim/VC_06.wav,5eaf0e378f26940719d2b02e,2021-01-21_20h05.59.747,Hungarian_step4,2020.2.3,Win32,60,,,left,2.40107,1,9,20,5,1,,,,,,,,,,,,,,,,,,,,,,,
,,,,,,,stim/VC_04.wav,5eaf0e378f26940719d2b02e,2021-01-21_20h05.59.747,Hungarian_step4,2020.2.3,Win32,60,,,left,0.751965,1,10,21,3,1,,,,,,,,,,,,,,,,,,,,,,,
,,,,,,,stim/VC_11.wav,5eaf0e378f26940719d2b02e,2021-01-21_20h05.59.747,Hungarian_step4,2020.2.3,Win32,60,,,right,0.522035,2,0,22,10,1,,,,,,,,,,,,,,,,,,,,,,,
,,,,,,,stim/VC_07.wav,5eaf0e378f26940719d2b02e,2021-01-21_20h05.59.747,Hungarian_step4,2020.2.3,Win32,60,,,right,0.65672,2,1,23,6,1,,,,,,,,,,,,,,,,,,,,,,,
,,,,,,,stim/VC_10.wav,5eaf0e378f26940719d2b02e,2021-01-21_20h05.59.747,Hungarian_step4,2020.2.3,Win32,60,,,right,0.524555,2,2,24,9,1,,,,,,,,,,,,,,,,,,,,,,,
,,,,,,,stim/VC_01.wav,5eaf0e378f26940719d2b02e,2021-01-21_20h05.59.747,Hungarian_step4,2020.2.3,Win32,60,,,left,0.589175,2,3,25,0,1,,,,,,,,,,,,,,,,,,,,,,,
,,,,,,,stim/VC_03.wav,5eaf0e378f26940719d2b02e,2021-01-21_20h05.59.747,Hungarian_step4,2020.2.3,Win32,60,,,left,0.9231,2,4,26,2,1,,,,,,,,,,,,,,,,,,,,,,,
,,,,,,,stim/VC_09.wav,5eaf0e378f26940719d2b02e,2021-01-21_20h05.59.747,Hungarian_step4,2020.2.3,Win32,60,,,right,0.656925,2,5,27,8,1,,,,,,,,,,,,,,,,,,,,,,,
,,,,,,,stim/VC_02.wav,5eaf0e378f26940719d2b02e,2021-01-21_20h05.59.747,Hungarian_step4,2020.2.3,Win32,60,,,left,0.550805,2,6,28,1,1,,,,,,,,,,,,,,,,,,,,,,,
,,,,,,,stim/VC_08.wav,5eaf0e378f26940719d2b02e,2021-01-21_20h05.59.747,Hungarian_step4,2020.2.3,Win32,60,,,right,0.5908,2,7,29,7,1,,,,,,,,,,,,,,,,,,,,,,,
,,,,,,,stim/VC_04.wav,5eaf0e378f26940719d2b02e,2021-01-21_20h05.59.747,Hungarian_step4,2020.2.3,Win32,60,,,left,1.15154,2,8,30,3,1,,,,,,,,,,,,,,,,,,,,,,,
,,,,,,,stim/VC_06.wav,5eaf0e378f26940719d2b02e,2021-01-21_20h05.59.747,Hungarian_step4,2020.2.3,Win32,60,,,left,1.1521,2,9,31,5,1,,,,,,,,,,,,,,,,,,,,,,,
,,,,,,,stim/VC_05.wav,5eaf0e378f26940719d2b02e,2021-01-21_20h05.59.747,Hungarian_step4,2020.2.3,Win32,60,,,left,0.68504,2,10,32,4,1,,,,,,,,,,,,,,,,,,,,,,,
,,,,,,,stim/VC_06.wav,5eaf0e378f26940719d2b02e,2021-01-21_20h05.59.747,Hungarian_step4,2020.2.3,Win32,60,,,left,4.2832,,,,,,3,3.73485,0,0,0,5,1,,,,,,,,,,,,,,,,
,,,,,,,stim/VC_10.wav,5eaf0e378f26940719d2b02e,2021-01-21_20h05.59.747,Hungarian_step4,2020.2.3,Win32,60,,,right,0.734095,,,,,,,,0,1,1,9,1,,,,,,,,,,,,,,,,
,,,,,,,stim/VC_01.wav,5eaf0e378f26940719d2b02e,2021-01-21_20h05.59.747,Hungarian_step4,2020.2.3,Win32,60,,,left,0.668565,,,,,,,,0,2,2,0,1,,,,,,,,,,,,,,,,
,,,,,,,stim/VC_11.wav,5eaf0e378f26940719d2b02e,2021-01-21_20h05.59.747,Hungarian_step4,2020.2.3,Win32,60,,,right,0.650975,,,,,,,,0,3,3,10,1,,,,,,,,,,,,,,,,
,,,,,,,stim/VC_05.wav,5eaf0e378f26940719d2b02e,2021-01-21_20h05.59.747,Hungarian_step4,2020.2.3,Win32,60,,,right,1.120105,,,,,,,,0,4,4,4,1,,,,,,,,,,,,,,,,
,,,,,,,stim/VC_07.wav,5eaf0e378f26940719d2b02e,2021-01-21_20h05.59.747,Hungarian_step4,2020.2.3,Win32,60,,,right,0.884795,,,,,,,,0,5,5,6,1,,,,,,,,,,,,,,,,
,,,,,,,stim/VC_08.wav,5eaf0e378f26940719d2b02e,2021-01-21_20h05.59.747,Hungarian_step4,2020.2.3,Win32,60,,,right,0.85548,,,,,,,,0,6,6,7,1,,,,,,,,,,,,,,,,
,,,,,,,stim/VC_02.wav,5eaf0e378f26940719d2b02e,2021-01-21_20h05.59.747,Hungarian_step4,2020.2.3,Win32,60,,,left,0.68494,,,,,,,,0,7,7,1,1,,,,,,,,,,,,,,,,
,,,,,,,stim/VC_04.wav,5eaf0e378f26940719d2b02e,2021-01-21_20h05.59.747,Hungarian_step4,2020.2.3,Win32,60,,,left,0.85576,,,,,,,,0,8,8,3,1,,,,,,,,,,,,,,,,
,,,,,,,stim/VC_09.wav,5eaf0e378f26940719d2b02e,2021-01-21_20h05.59.747,Hungarian_step4,2020.2.3,Win32,60,,,right,0.85592,,,,,,,,0,9,9,8,1,,,,,,,,,,,,,,,,
,,,,,,,stim/VC_03.wav,5eaf0e378f26940719d2b02e,2021-01-21_20h05.59.747,Hungarian_step4,2020.2.3,Win32,60,,,left,0.855905,,,,,,,,0,10,10,2,1,,,,,,,,,,,,,,,,
,,,,,,,stim/VC_07.wav,5eaf0e378f26940719d2b02e,2021-01-21_20h05.59.747,Hungarian_step4,2020.2.3,Win32,60,,,right,1.133215,,,,,,,,1,0,11,6,1,,,,,,,,,,,,,,,,
,,,,,,,stim/VC_04.wav,5eaf0e378f26940719d2b02e,2021-01-21_20h05.59.747,Hungarian_step4,2020.2.3,Win32,60,,,left,0.66675,,,,,,,,1,1,12,3,1,,,,,,,,,,,,,,,,
,,,,,,,stim/VC_05.wav,5eaf0e378f26940719d2b02e,2021-01-21_20h05.59.747,Hungarian_step4,2020.2.3,Win32,60,,,left,1.188795,,,,,,,,1,2,13,4,1,,,,,,,,,,,,,,,,
,,,,,,,stim/VC_11.wav,5eaf0e378f26940719d2b02e,2021-01-21_20h05.59.747,Hungarian_step4,2020.2.3,Win32,60,,,right,0.722455,,,,,,,,1,3,14,10,1,,,,,,,,,,,,,,,,
,,,,,,,stim/VC_02.wav,5eaf0e378f26940719d2b02e,2021-01-21_20h05.59.747,Hungarian_step4,2020.2.3,Win32,60,,,left,0.65549,,,,,,,,1,4,15,1,1,,,,,,,,,,,,,,,,
,,,,,,,stim/VC_06.wav,5eaf0e378f26940719d2b02e,2021-01-21_20h05.59.747,Hungarian_step4,2020.2.3,Win32,60,,,right,3.39011,,,,,,,,1,5,16,5,1,,,,,,,,,,,,,,,,
,,,,,,,stim/VC_10.wav,5eaf0e378f26940719d2b02e,2021-01-21_20h05.59.747,Hungarian_step4,2020.2.3,Win32,60,,,right,0.856745,,,,,,,,1,6,17,9,1,,,,,,,,,,,,,,,,
,,,,,,,stim/VC_08.wav,5eaf0e378f26940719d2b02e,2021-01-21_20h05.59.747,Hungarian_step4,2020.2.3,Win32,60,,,right,0.66678,,,,,,,,1,7,18,7,1,,,,,,,,,,,,,,,,
,,,,,,,stim/VC_09.wav,5eaf0e378f26940719d2b02e,2021-01-21_20h05.59.747,Hungarian_step4,2020.2.3,Win32,60,,,right,0.59112,,,,,,,,1,8,19,8,1,,,,,,,,,,,,,,,,
,,,,,,,stim/VC_03.wav,5eaf0e378f26940719d2b02e,2021-01-21_20h05.59.747,Hungarian_step4,2020.2.3,Win32,60,,,left,0.68301,,,,,,,,1,9,20,2,1,,,,,,,,,,,,,,,,
,,,,,,,stim/VC_01.wav,5eaf0e378f26940719d2b02e,2021-01-21_20h05.59.747,Hungarian_step4,2020.2.3,Win32,60,,,left,0.589415,,,,,,,,1,10,21,0,1,,,,,,,,,,,,,,,,
,,,,,,,stim2/pa+45.wav,5eaf0e378f26940719d2b02e,2021-01-21_20h05.59.747,Hungarian_step4,2020.2.3,Win32,60,,,,,,,,,,,,,,,,,left,1.63785,0,0,0,8,1,,,,,,,,,
,,,,,,,stim2/pa-25.wav,5eaf0e378f26940719d2b02e,2021-01-21_20h05.59.747,Hungarian_step4,2020.2.3,Win32,60,,,,,,,,,,,,,,,,,right,0.722115,0,1,1,14,1,,,,,,,,,
,,,,,,,stim2/pa+50.wav,5eaf0e378f26940719d2b02e,2021-01-21_20h05.59.747,Hungarian_step4,2020.2.3,Win32,60,,,,,,,,,,,,,,,,,right,0.789335,0,2,2,9,1,,,,,,,,,
,,,,,,,stim2/pa+40.wav,5eaf0e378f26940719d2b02e,2021-01-21_20h05.59.747,Hungarian_step4,2020.2.3,Win32,60,,,,,,,,,,,,,,,,,left,1.35195,0,3,3,7,1,,,,,,,,,
,,,,,,,stim2/pa+10.wav,5eaf0e378f26940719d2b02e,2021-01-21_20h05.59.747,Hungarian_step4,2020.2.3,Win32,60,,,,,,,,,,,,,,,,,left,0.85557,0,4,4,1,1,,,,,,,,,
,,,,,,,stim2/pa-10.wav,5eaf0e378f26940719d2b02e,2021-01-21_20h05.59.747,Hungarian_step4,2020.2.3,Win32,60,,,,,,,,,,,,,,,,,right,0.61761,0,5,5,11,1,,,,,,,,,
,,,,,,,stim2/pa-35.wav,5eaf0e378f26940719d2b02e,2021-01-21_20h05.59.747,Hungarian_step4,2020.2.3,Win32,60,,,,,,,,,,,,,,,,,right,0.522415,0,6,6,16,1,,,,,,,,,
,,,,,,,stim2/pa+35.wav,5eaf0e378f26940719d2b02e,2021-01-21_20h05.59.747,Hungarian_step4,2020.2.3,Win32,60,,,,,,,,,,,,,,,,,right,1.19639,0,7,7,6,1,,,,,,,,,
,,,,,,,stim2/pa+20.wav,5eaf0e378f26940719d2b02e,2021-01-21_20h05.59.747,Hungarian_step4,2020.2.3,Win32,60,,,,,,,,,,,,,,,,,left,0.923845,0,8,8,3,1,,,,,,,,,
,,,,,,,stim2/pa+30.wav,5eaf0e378f26940719d2b02e,2021-01-21_20h05.59.747,Hungarian_step4,2020.2.3,Win32,60,,,,,,,,,,,,,,,,,left,0.668225,0,9,9,5,1,,,,,,,,,
,,,,,,,stim2/pa+05.wav,5eaf0e378f26940719d2b02e,2021-01-21_20h05.59.747,Hungarian_step4,2020.2.3,Win32,60,,,,,,,,,,,,,,,,,left,0.6575,0,10,10,0,1,,,,,,,,,
,,,,,,,stim2/pa-20.wav,5eaf0e378f26940719d2b02e,2021-01-21_20h05.59.747,Hungarian_step4,2020.2.3,Win32,60,,,,,,,,,,,,,,,,,right,0.60091,0,11,11,13,1,,,,,,,,,
,,,,,,,stim2/pa+25.wav,5eaf0e378f26940719d2b02e,2021-01-21_20h05.59.747,Hungarian_step4,2020.2.3,Win32,60,,,,,,,,,,,,,,,,,left,0.85674,0,12,12,4,1,,,,,,,,,
,,,,,,,stim2/pa-15.wav,5eaf0e378f26940719d2b02e,2021-01-21_20h05.59.747,Hungarian_step4,2020.2.3,Win32,60,,,,,,,,,,,,,,,,,right,0.66846,0,13,13,12,1,,,,,,,,,
,,,,,,,stim2/pa-05.wav,5eaf0e378f26940719d2b02e,2021-01-21_20h05.59.747,Hungarian_step4,2020.2.3,Win32,60,,,,,,,,,,,,,,,,,right,0.91559,0,14,14,10,1,,,,,,,,,
,,,,,,,stim2/pa+15.wav,5eaf0e378f26940719d2b02e,2021-01-21_20h05.59.747,Hungarian_step4,2020.2.3,Win32,60,,,,,,,,,,,,,,,,,left,0.72826,0,15,15,2,1,,,,,,,,,
,,,,,,,stim2/pa-30.wav,5eaf0e378f26940719d2b02e,2021-01-21_20h05.59.747,Hungarian_step4,2020.2.3,Win32,60,,,,,,,,,,,,,,,,,right,1.37513,0,16,16,15,1,,,,,,,,,
,,,,,,,stim2/pa-10.wav,5eaf0e378f26940719d2b02e,2021-01-21_20h05.59.747,Hungarian_step4,2020.2.3,Win32,60,,,,,,,,,,,,,,,,,left,2.055145,1,0,17,11,1,,,,,,,,,
,,,,,,,stim2/pa+40.wav,5eaf0e378f26940719d2b02e,2021-01-21_20h05.59.747,Hungarian_step4,2020.2.3,Win32,60,,,,,,,,,,,,,,,,,right,0.522975,1,1,18,7,1,,,,,,,,,
,,,,,,,stim2/pa+15.wav,5eaf0e378f26940719d2b02e,2021-01-21_20h05.59.747,Hungarian_step4,2020.2.3,Win32,60,,,,,,,,,,,,,,,,,left,0.75138,1,2,19,2,1,,,,,,,,,
,,,,,,,stim2/pa-30.wav,5eaf0e378f26940719d2b02e,2021-01-21_20h05.59.747,Hungarian_step4,2020.2.3,Win32,60,,,,,,,,,,,,,,,,,right,0.818115,1,3,20,15,1,,,,,,,,,
,,,,,,,stim2/pa+30.wav,5eaf0e378f26940719d2b02e,2021-01-21_20h05.59.747,Hungarian_step4,2020.2.3,Win32,60,,,,,,,,,,,,,,,,,left,0.85743,1,4,21,5,1,,,,,,,,,
,,,,,,,stim2/pa-25.wav,5eaf0e378f26940719d2b02e,2021-01-21_20h05.59.747,Hungarian_step4,2020.2.3,Win32,60,,,,,,,,,,,,,,,,,right,0.62145,1,5,22,14,1,,,,,,,,,
,,,,,,,stim2/pa-15.wav,5eaf0e378f26940719d2b02e,2021-01-21_20h05.59.747,Hungarian_step4,2020.2.3,Win32,60,,,,,,,,,,,,,,,,,right,1.084455,1,6,23,12,1,,,,,,,,,
,,,,,,,stim2/pa+10.wav,5eaf0e378f26940719d2b02e,2021-01-21_20h05.59.747,Hungarian_step4,2020.2.3,Win32,60,,,,,,,,,,,,,,,,,left,0.72231,1,7,24,1,1,,,,,,,,,
,,,,,,,stim2/pa+05.wav,5eaf0e378f26940719d2b02e,2021-01-21_20h05.59.747,Hungarian_step4,2020.2.3,Win32,60,,,,,,,,,,,,,,,,,left,0.85571,1,8,25,0,1,,,,,,,,,
,,,,,,,stim2/pa-20.wav,5eaf0e378f26940719d2b02e,2021-01-21_20h05.59.747,Hungarian_step4,2020.2.3,Win32,60,,,,,,,,,,,,,,,,,right,0.73509,1,9,26,13,1,,,,,,,,,
,,,,,,,stim2/pa+50.wav,5eaf0e378f26940719d2b02e,2021-01-21_20h05.59.747,Hungarian_step4,2020.2.3,Win32,60,,,,,,,,,,,,,,,,,left,0.750435,1,10,27,9,1,,,,,,,,,
,,,,,,,stim2/pa+25.wav,5eaf0e378f26940719d2b02e,2021-01-21_20h05.59.747,Hungarian_step4,2020.2.3,Win32,60,,,,,,,,,,,,,,,,,left,0.658045,1,11,28,4,1,,,,,,,,,
,,,,,,,stim2/pa-05.wav,5eaf0e378f26940719d2b02e,2021-01-21_20h05.59.747,Hungarian_step4,2020.2.3,Win32,60,,,,,,,,,,,,,,,,,right,0.736195,1,12,29,10,1,,,,,,,,,
,,,,,,,stim2/pa+45.wav,5eaf0e378f26940719d2b02e,2021-01-21_20h05.59.747,Hungarian_step4,2020.2.3,Win32,60,,,,,,,,,,,,,,,,,left,0.65625,1,13,30,8,1,,,,,,,,,
,,,,,,,stim2/pa+35.wav,5eaf0e378f26940719d2b02e,2021-01-21_20h05.59.747,Hungarian_step4,2020.2.3,Win32,60,,,,,,,,,,,,,,,,,left,1.18979,1,14,31,6,1,,,,,,,,,
,,,,,,,stim2/pa+20.wav,5eaf0e378f26940719d2b02e,2021-01-21_20h05.59.747,Hungarian_step4,2020.2.3,Win32,60,,,,,,,,,,,,,,,,,left,1.388555,1,15,32,3,1,,,,,,,,,
,,,,,,,stim2/pa-35.wav,5eaf0e378f26940719d2b02e,2021-01-21_20h05.59.747,Hungarian_step4,2020.2.3,Win32,60,,,,,,,,,,,,,,,,,right,0.751685,1,16,33,16,1,,,,,,,,,
,,,,,,,stim2/pa+15.wav,5eaf0e378f26940719d2b02e,2021-01-21_20h05.59.747,Hungarian_step4,2020.2.3,Win32,60,,,,,,,,,,,,,,,,,left,0.7891,2,0,34,2,1,,,,,,,,,
,,,,,,,stim2/pa+25.wav,5eaf0e378f26940719d2b02e,2021-01-21_20h05.59.747,Hungarian_step4,2020.2.3,Win32,60,,,,,,,,,,,,,,,,,left,1.019085,2,1,35,4,1,,,,,,,,,
,,,,,,,stim2/pa+35.wav,5eaf0e378f26940719d2b02e,2021-01-21_20h05.59.747,Hungarian_step4,2020.2.3,Win32,60,,,,,,,,,,,,,,,,,left,0.729025,2,2,36,6,1,,,,,,,,,
,,,,,,,stim2/pa+30.wav,5eaf0e378f26940719d2b02e,2021-01-21_20h05.59.747,Hungarian_step4,2020.2.3,Win32,60,,,,,,,,,,,,,,,,,left,0.656475,2,3,37,5,1,,,,,,,,,
,,,,,,,stim2/pa+40.wav,5eaf0e378f26940719d2b02e,2021-01-21_20h05.59.747,Hungarian_step4,2020.2.3,Win32,60,,,,,,,,,,,,,,,,,left,0.600895,2,4,38,7,1,,,,,,,,,
,,,,,,,stim2/pa+45.wav,5eaf0e378f26940719d2b02e,2021-01-21_20h05.59.747,Hungarian_step4,2020.2.3,Win32,60,,,,,,,,,,,,,,,,,left,0.750685,2,5,39,8,1,,,,,,,,,
,,,,,,,stim2/pa-15.wav,5eaf0e378f26940719d2b02e,2021-01-21_20h05.59.747,Hungarian_step4,2020.2.3,Win32,60,,,,,,,,,,,,,,,,,right,0.551275,2,6,40,12,1,,,,,,,,,
,,,,,,,stim2/pa-30.wav,5eaf0e378f26940719d2b02e,2021-01-21_20h05.59.747,Hungarian_step4,2020.2.3,Win32,60,,,,,,,,,,,,,,,,,right,1.25679,2,7,41,15,1,,,,,,,,,
,,,,,,,stim2/pa+50.wav,5eaf0e378f26940719d2b02e,2021-01-21_20h05.59.747,Hungarian_step4,2020.2.3,Win32,60,,,,,,,,,,,,,,,,,left,0.85577,2,8,42,9,1,,,,,,,,,
,,,,,,,stim2/pa-05.wav,5eaf0e378f26940719d2b02e,2021-01-21_20h05.59.747,Hungarian_step4,2020.2.3,Win32,60,,,,,,,,,,,,,,,,,right,0.98924,2,9,43,10,1,,,,,,,,,
,,,,,,,stim2/pa-20.wav,5eaf0e378f26940719d2b02e,2021-01-21_20h05.59.747,Hungarian_step4,2020.2.3,Win32,60,,,,,,,,,,,,,,,,,right,1.056575,2,10,44,13,1,,,,,,,,,
,,,,,,,stim2/pa-10.wav,5eaf0e378f26940719d2b02e,2021-01-21_20h05.59.747,Hungarian_step4,2020.2.3,Win32,60,,,,,,,,,,,,,,,,,right,1.2007,2,11,45,11,1,,,,,,,,,
,,,,,,,stim2/pa-35.wav,5eaf0e378f26940719d2b02e,2021-01-21_20h05.59.747,Hungarian_step4,2020.2.3,Win32,60,,,,,,,,,,,,,,,,,right,0.75236,2,12,46,16,1,,,,,,,,,
,,,,,,,stim2/pa+20.wav,5eaf0e378f26940719d2b02e,2021-01-21_20h05.59.747,Hungarian_step4,2020.2.3,Win32,60,,,,,,,,,,,,,,,,,left,0.721075,2,13,47,3,1,,,,,,,,,
,,,,,,,stim2/pa+05.wav,5eaf0e378f26940719d2b02e,2021-01-21_20h05.59.747,Hungarian_step4,2020.2.3,Win32,60,,,,,,,,,,,,,,,,,left,1.00034,2,14,48,0,1,,,,,,,,,
,,,,,,,stim2/pa+10.wav,5eaf0e378f26940719d2b02e,2021-01-21_20h05.59.747,Hungarian_step4,2020.2.3,Win32,60,,,,,,,,,,,,,,,,,left,0.59066,2,15,49,1,1,,,,,,,,,
,,,,,,,stim2/pa-25.wav,5eaf0e378f26940719d2b02e,2021-01-21_20h05.59.747,Hungarian_step4,2020.2.3,Win32,60,,,,,,,,,,,,,,,,,right,0.656295,2,16,50,14,1,,,,,,,,,
,,,,,,,stim2/pa+35.wav,5eaf0e378f26940719d2b02e,2021-01-21_20h05.59.747,Hungarian_step4,2020.2.3,Win32,60,,,,,,,,,,,,,,,,,left,1.24835,,,,,,f,3.37437,0,0,0,6,1,,
,,,,,,,stim2/pa+05.wav,5eaf0e378f26940719d2b02e,2021-01-21_20h05.59.747,Hungarian_step4,2020.2.3,Win32,60,,,,,,,,,,,,,,,,,left,0.743875,,,,,,,,0,1,1,0,1,,
,,,,,,,stim2/pa-10.wav,5eaf0e378f26940719d2b02e,2021-01-21_20h05.59.747,Hungarian_step4,2020.2.3,Win32,60,,,,,,,,,,,,,,,,,right,0.867925,,,,,,,,0,2,2,11,1,,
,,,,,,,stim2/pa-20.wav,5eaf0e378f26940719d2b02e,2021-01-21_20h05.59.747,Hungarian_step4,2020.2.3,Win32,60,,,,,,,,,,,,,,,,,right,1.92209,,,,,,,,0,3,3,13,1,,
,,,,,,,stim2/pa+45.wav,5eaf0e378f26940719d2b02e,2021-01-21_20h05.59.747,Hungarian_step4,2020.2.3,Win32,60,,,,,,,,,,,,,,,,,left,0.685205,,,,,,,,0,4,4,8,1,,
,,,,,,,stim2/pa-30.wav,5eaf0e378f26940719d2b02e,2021-01-21_20h05.59.747,Hungarian_step4,2020.2.3,Win32,60,,,,,,,,,,,,,,,,,right,0.667995,,,,,,,,0,5,5,15,1,,
,,,,,,,stim2/pa-15.wav,5eaf0e378f26940719d2b02e,2021-01-21_20h05.59.747,Hungarian_step4,2020.2.3,Win32,60,,,,,,,,,,,,,,,,,right,0.790985,,,,,,,,0,6,6,12,1,,
,,,,,,,stim2/pa+10.wav,5eaf0e378f26940719d2b02e,2021-01-21_20h05.59.747,Hungarian_step4,2020.2.3,Win32,60,,,,,,,,,,,,,,,,,left,0.557285,,,,,,,,0,7,7,1,1,,
,,,,,,,stim2/pa+20.wav,5eaf0e378f26940719d2b02e,2021-01-21_20h05.59.747,Hungarian_step4,2020.2.3,Win32,60,,,,,,,,,,,,,,,,,left,0.705145,,,,,,,,0,8,8,3,1,,
,,,,,,,stim2/pa-35.wav,5eaf0e378f26940719d2b02e,2021-01-21_20h05.59.747,Hungarian_step4,2020.2.3,Win32,60,,,,,,,,,,,,,,,,,right,0.65866,,,,,,,,0,9,9,16,1,,
,,,,,,,stim2/pa+15.wav,5eaf0e378f26940719d2b02e,2021-01-21_20h05.59.747,Hungarian_step4,2020.2.3,Win32,60,,,,,,,,,,,,,,,,,left,0.73367,,,,,,,,0,10,10,2,1,,
,,,,,,,stim2/pa+50.wav,5eaf0e378f26940719d2b02e,2021-01-21_20h05.59.747,Hungarian_step4,2020.2.3,Win32,60,,,,,,,,,,,,,,,,,left,0.751565,,,,,,,,0,11,11,9,1,,
,,,,,,,stim2/pa-25.wav,5eaf0e378f26940719d2b02e,2021-01-21_20h05.59.747,Hungarian_step4,2020.2.3,Win32,60,,,,,,,,,,,,,,,,,right,0.59135,,,,,,,,0,12,12,14,1,,
,,,,,,,stim2/pa+30.wav,5eaf0e378f26940719d2b02e,2021-01-21_20h05.59.747,Hungarian_step4,2020.2.3,Win32,60,,,,,,,,,,,,,,,,,left,0.655135,,,,,,,,0,13,13,5,1,,
,,,,,,,stim2/pa+25.wav,5eaf0e378f26940719d2b02e,2021-01-21_20h05.59.747,Hungarian_step4,2020.2.3,Win32,60,,,,,,,,,,,,,,,,,right,1.72494,,,,,,,,0,14,14,4,1,,
,,,,,,,stim2/pa-05.wav,5eaf0e378f26940719d2b02e,2021-01-21_20h05.59.747,Hungarian_step4,2020.2.3,Win32,60,,,,,,,,,,,,,,,,,right,1.52467,,,,,,,,0,15,15,10,1,,
,,,,,,,stim2/pa+40.wav,5eaf0e378f26940719d2b02e,2021-01-21_20h05.59.747,Hungarian_step4,2020.2.3,Win32,60,,,,,,,,,,,,,,,,,left,0.674785,,,,,,,,0,16,16,7,1,,
,,,,,,,stim2/pa-10.wav,5eaf0e378f26940719d2b02e,2021-01-21_20h05.59.747,Hungarian_step4,2020.2.3,Win32,60,,,,,,,,,,,,,,,,,right,1.0009,,,,,,,,1,0,17,11,1,,
,,,,,,,stim2/pa+25.wav,5eaf0e378f26940719d2b02e,2021-01-21_20h05.59.747,Hungarian_step4,2020.2.3,Win32,60,,,,,,,,,,,,,,,,,left,0.64776,,,,,,,,1,1,18,4,1,,
,,,,,,,stim2/pa+20.wav,5eaf0e378f26940719d2b02e,2021-01-21_20h05.59.747,Hungarian_step4,2020.2.3,Win32,60,,,,,,,,,,,,,,,,,left,0.52976,,,,,,,,1,2,19,3,1,,
,,,,,,,stim2/pa+30.wav,5eaf0e378f26940719d2b02e,2021-01-21_20h05.59.747,Hungarian_step4,2020.2.3,Win32,60,,,,,,,,,,,,,,,,,left,0.451525,,,,,,,,1,3,20,5,1,,
,,,,,,,stim2/pa+10.wav,5eaf0e378f26940719d2b02e,2021-01-21_20h05.59.747,Hungarian_step4,2020.2.3,Win32,60,,,,,,,,,,,,,,,,,left,0.88465,,,,,,,,1,4,21,1,1,,
,,,,,,,stim2/pa-05.wav,5eaf0e378f26940719d2b02e,2021-01-21_20h05.59.747,Hungarian_step4,2020.2.3,Win32,60,,,,,,,,,,,,,,,,,right,0.65677,,,,,,,,1,5,22,10,1,,
,,,,,,,stim2/pa+05.wav,5eaf0e378f26940719d2b02e,2021-01-21_20h05.59.747,Hungarian_step4,2020.2.3,Win32,60,,,,,,,,,,,,,,,,,left,0.68389,,,,,,,,1,6,23,0,1,,
,,,,,,,stim2/pa-15.wav,5eaf0e378f26940719d2b02e,2021-01-21_20h05.59.747,Hungarian_step4,2020.2.3,Win32,60,,,,,,,,,,,,,,,,,right,0.601565,,,,,,,,1,7,24,12,1,,
,,,,,,,stim2/pa-25.wav,5eaf0e378f26940719d2b02e,2021-01-21_20h05.59.747,Hungarian_step4,2020.2.3,Win32,60,,,,,,,,,,,,,,,,,right,0.85543,,,,,,,,1,8,25,14,1,,
,,,,,,,stim2/pa+15.wav,5eaf0e378f26940719d2b02e,2021-01-21_20h05.59.747,Hungarian_step4,2020.2.3,Win32,60,,,,,,,,,,,,,,,,,left,0.713385,,,,,,,,1,9,26,2,1,,
,,,,,,,stim2/pa+40.wav,5eaf0e378f26940719d2b02e,2021-01-21_20h05.59.747,Hungarian_step4,2020.2.3,Win32,60,,,,,,,,,,,,,,,,,left,1.01302,,,,,,,,1,10,27,7,1,,
,,,,,,,stim2/pa+45.wav,5eaf0e378f26940719d2b02e,2021-01-21_20h05.59.747,Hungarian_step4,2020.2.3,Win32,60,,,,,,,,,,,,,,,,,right,1.601485,,,,,,,,1,11,28,8,1,,
,,,,,,,stim2/pa-35.wav,5eaf0e378f26940719d2b02e,2021-01-21_20h05.59.747,Hungarian_step4,2020.2.3,Win32,60,,,,,,,,,,,,,,,,,right,0.988695,,,,,,,,1,12,29,16,1,,
,,,,,,,stim2/pa-30.wav,5eaf0e378f26940719d2b02e,2021-01-21_20h05.59.747,Hungarian_step4,2020.2.3,Win32,60,,,,,,,,,,,,,,,,,right,0.923745,,,,,,,,1,13,30,15,1,,
,,,,,,,stim2/pa-20.wav,5eaf0e378f26940719d2b02e,2021-01-21_20h05.59.747,Hungarian_step4,2020.2.3,Win32,60,,,,,,,,,,,,,,,,,right,1.259425,,,,,,,,1,14,31,13,1,,
,,,,,,,stim2/pa+50.wav,5eaf0e378f26940719d2b02e,2021-01-21_20h05.59.747,Hungarian_step4,2020.2.3,Win32,60,,,,,,,,,,,,,,,,,left,0.927165,,,,,,,,1,15,32,9,1,,
,,,,,,,stim2/pa+35.wav,5eaf0e378f26940719d2b02e,2021-01-21_20h05.59.747,Hungarian_step4,2020.2.3,Win32,60,,,,,,,,,,,,,,,,,left,1.4571,,,,,,,,1,16,33,6,1,,
,,,,,,,,5eaf0e378f26940719d2b02e,2021-01-21_20h05.59.747,Hungarian_step4,2020.2.3,Win32,60,,,,,,,,,,,,,,,,,,,,,,,,,,,,,,,space,4.10942
