resp.keys,resp.rt,trials.thisRepN,trials.thisTrialN,trials.thisN,trials.thisIndex,trials.ran,stimuli,participant,date,expName,psychopyVersion,OS,frameRate,gotResponse.keys,gotResponse.rt,resp_2.keys,resp_2.rt,trials_2.thisRepN,trials_2.thisTrialN,trials_2.thisN,trials_2.thisIndex,trials_2.ran,key_resp_3.keys,key_resp_3.rt,trials_4.thisRepN,trials_4.thisTrialN,trials_4.thisN,trials_4.thisIndex,trials_4.ran,resp_3.keys,resp_3.rt,trials_3.thisRepN,trials_3.thisTrialN,trials_3.thisN,trials_3.thisIndex,trials_3.ran,key_resp_2.keys,key_resp_2.rt,trials_5.thisRepN,trials_5.thisTrialN,trials_5.thisN,trials_5.thisIndex,trials_5.ran,key_resp.keys,key_resp.rt
left,5.78245,0,0,0,0,1,stim/VC_01.wav,5ee579ecd4169f2bee94041e,2021-01-20_22h31.40.958,Spanish_step2,2020.2.3,Win32,60,,,,,,,,,,,,,,,,,,,,,,,,,,,,,,,,
right,1.496015,0,1,1,1,1,stim/VC_11.wav,5ee579ecd4169f2bee94041e,2021-01-20_22h31.40.958,Spanish_step2,2020.2.3,Win32,60,,,,,,,,,,,,,,,,,,,,,,,,,,,,,,,,
,,,,,,,stim/VC_02.wav,5ee579ecd4169f2bee94041e,2021-01-20_22h31.40.958,Spanish_step2,2020.2.3,Win32,60,space,1.201995,right,0.75279,0,0,0,1,1,,,,,,,,,,,,,,,,,,,,,,,
,,,,,,,stim/VC_06.wav,5ee579ecd4169f2bee94041e,2021-01-20_22h31.40.958,Spanish_step2,2020.2.3,Win32,60,,,right,0.488965,0,1,1,5,1,,,,,,,,,,,,,,,,,,,,,,,
,,,,,,,stim/VC_03.wav,5ee579ecd4169f2bee94041e,2021-01-20_22h31.40.958,Spanish_step2,2020.2.3,Win32,60,,,right,0.509985,0,2,2,2,1,,,,,,,,,,,,,,,,,,,,,,,
,,,,,,,stim/VC_11.wav,5ee579ecd4169f2bee94041e,2021-01-20_22h31.40.958,Spanish_step2,2020.2.3,Win32,60,,,right,0.50333,0,3,3,10,1,,,,,,,,,,,,,,,,,,,,,,,
,,,,,,,stim/VC_05.wav,5ee579ecd4169f2bee94041e,2021-01-20_22h31.40.958,Spanish_step2,2020.2.3,Win32,60,,,left,1.122945,0,4,4,4,1,,,,,,,,,,,,,,,,,,,,,,,
,,,,,,,stim/VC_08.wav,5ee579ecd4169f2bee94041e,2021-01-20_22h31.40.958,Spanish_step2,2020.2.3,Win32,60,,,right,0.57789,0,5,5,7,1,,,,,,,,,,,,,,,,,,,,,,,
,,,,,,,stim/VC_10.wav,5ee579ecd4169f2bee94041e,2021-01-20_22h31.40.958,Spanish_step2,2020.2.3,Win32,60,,,right,0.5555,0,6,6,9,1,,,,,,,,,,,,,,,,,,,,,,,
,,,,,,,stim/VC_09.wav,5ee579ecd4169f2bee94041e,2021-01-20_22h31.40.958,Spanish_step2,2020.2.3,Win32,60,,,right,0.49385,0,7,7,8,1,,,,,,,,,,,,,,,,,,,,,,,
,,,,,,,stim/VC_01.wav,5ee579ecd4169f2bee94041e,2021-01-20_22h31.40.958,Spanish_step2,2020.2.3,Win32,60,,,right,0.62082,0,8,8,0,1,,,,,,,,,,,,,,,,,,,,,,,
,,,,,,,stim/VC_04.wav,5ee579ecd4169f2bee94041e,2021-01-20_22h31.40.958,Spanish_step2,2020.2.3,Win32,60,,,right,0.559655,0,9,9,3,1,,,,,,,,,,,,,,,,,,,,,,,
,,,,,,,stim/VC_07.wav,5ee579ecd4169f2bee94041e,2021-01-20_22h31.40.958,Spanish_step2,2020.2.3,Win32,60,,,right,0.96947,0,10,10,6,1,,,,,,,,,,,,,,,,,,,,,,,
,,,,,,,stim/VC_08.wav,5ee579ecd4169f2bee94041e,2021-01-20_22h31.40.958,Spanish_step2,2020.2.3,Win32,60,,,right,0.578705,1,0,11,7,1,,,,,,,,,,,,,,,,,,,,,,,
,,,,,,,stim/VC_07.wav,5ee579ecd4169f2bee94041e,2021-01-20_22h31.40.958,Spanish_step2,2020.2.3,Win32,60,,,right,0.499805,1,1,12,6,1,,,,,,,,,,,,,,,,,,,,,,,
,,,,,,,stim/VC_11.wav,5ee579ecd4169f2bee94041e,2021-01-20_22h31.40.958,Spanish_step2,2020.2.3,Win32,60,,,right,0.500125,1,2,13,10,1,,,,,,,,,,,,,,,,,,,,,,,
,,,,,,,stim/VC_04.wav,5ee579ecd4169f2bee94041e,2021-01-20_22h31.40.958,Spanish_step2,2020.2.3,Win32,60,,,right,0.5379,1,3,14,3,1,,,,,,,,,,,,,,,,,,,,,,,
,,,,,,,stim/VC_05.wav,5ee579ecd4169f2bee94041e,2021-01-20_22h31.40.958,Spanish_step2,2020.2.3,Win32,60,,,right,0.652485,1,4,15,4,1,,,,,,,,,,,,,,,,,,,,,,,
,,,,,,,stim/VC_06.wav,5ee579ecd4169f2bee94041e,2021-01-20_22h31.40.958,Spanish_step2,2020.2.3,Win32,60,,,right,0.52742,1,5,16,5,1,,,,,,,,,,,,,,,,,,,,,,,
,,,,,,,stim/VC_10.wav,5ee579ecd4169f2bee94041e,2021-01-20_22h31.40.958,Spanish_step2,2020.2.3,Win32,60,,,right,0.50605,1,6,17,9,1,,,,,,,,,,,,,,,,,,,,,,,
,,,,,,,stim/VC_01.wav,5ee579ecd4169f2bee94041e,2021-01-20_22h31.40.958,Spanish_step2,2020.2.3,Win32,60,,,right,0.4631,1,7,18,0,1,,,,,,,,,,,,,,,,,,,,,,,
,,,,,,,stim/VC_09.wav,5ee579ecd4169f2bee94041e,2021-01-20_22h31.40.958,Spanish_step2,2020.2.3,Win32,60,,,right,0.438205,1,8,19,8,1,,,,,,,,,,,,,,,,,,,,,,,
,,,,,,,stim/VC_03.wav,5ee579ecd4169f2bee94041e,2021-01-20_22h31.40.958,Spanish_step2,2020.2.3,Win32,60,,,right,0.483765,1,9,20,2,1,,,,,,,,,,,,,,,,,,,,,,,
,,,,,,,stim/VC_02.wav,5ee579ecd4169f2bee94041e,2021-01-20_22h31.40.958,Spanish_step2,2020.2.3,Win32,60,,,right,0.44982,1,10,21,1,1,,,,,,,,,,,,,,,,,,,,,,,
,,,,,,,stim/VC_10.wav,5ee579ecd4169f2bee94041e,2021-01-20_22h31.40.958,Spanish_step2,2020.2.3,Win32,60,,,right,0.55047,2,0,22,9,1,,,,,,,,,,,,,,,,,,,,,,,
,,,,,,,stim/VC_03.wav,5ee579ecd4169f2bee94041e,2021-01-20_22h31.40.958,Spanish_step2,2020.2.3,Win32,60,,,right,0.676165,2,1,23,2,1,,,,,,,,,,,,,,,,,,,,,,,
,,,,,,,stim/VC_04.wav,5ee579ecd4169f2bee94041e,2021-01-20_22h31.40.958,Spanish_step2,2020.2.3,Win32,60,,,right,0.57438,2,2,24,3,1,,,,,,,,,,,,,,,,,,,,,,,
,,,,,,,stim/VC_09.wav,5ee579ecd4169f2bee94041e,2021-01-20_22h31.40.958,Spanish_step2,2020.2.3,Win32,60,,,right,0.558485,2,3,25,8,1,,,,,,,,,,,,,,,,,,,,,,,
,,,,,,,stim/VC_06.wav,5ee579ecd4169f2bee94041e,2021-01-20_22h31.40.958,Spanish_step2,2020.2.3,Win32,60,,,right,0.63429,2,4,26,5,1,,,,,,,,,,,,,,,,,,,,,,,
,,,,,,,stim/VC_05.wav,5ee579ecd4169f2bee94041e,2021-01-20_22h31.40.958,Spanish_step2,2020.2.3,Win32,60,,,right,0.95007,2,5,27,4,1,,,,,,,,,,,,,,,,,,,,,,,
,,,,,,,stim/VC_08.wav,5ee579ecd4169f2bee94041e,2021-01-20_22h31.40.958,Spanish_step2,2020.2.3,Win32,60,,,right,0.70582,2,6,28,7,1,,,,,,,,,,,,,,,,,,,,,,,
,,,,,,,stim/VC_01.wav,5ee579ecd4169f2bee94041e,2021-01-20_22h31.40.958,Spanish_step2,2020.2.3,Win32,60,,,right,1.077835,2,7,29,0,1,,,,,,,,,,,,,,,,,,,,,,,
,,,,,,,stim/VC_11.wav,5ee579ecd4169f2bee94041e,2021-01-20_22h31.40.958,Spanish_step2,2020.2.3,Win32,60,,,right,0.516915,2,8,30,10,1,,,,,,,,,,,,,,,,,,,,,,,
,,,,,,,stim/VC_02.wav,5ee579ecd4169f2bee94041e,2021-01-20_22h31.40.958,Spanish_step2,2020.2.3,Win32,60,,,right,1.69045,2,9,31,1,1,,,,,,,,,,,,,,,,,,,,,,,
,,,,,,,stim/VC_07.wav,5ee579ecd4169f2bee94041e,2021-01-20_22h31.40.958,Spanish_step2,2020.2.3,Win32,60,,,right,0.705305,2,10,32,6,1,,,,,,,,,,,,,,,,,,,,,,,
,,,,,,,stim/VC_02.wav,5ee579ecd4169f2bee94041e,2021-01-20_22h31.40.958,Spanish_step2,2020.2.3,Win32,60,,,right,3.60223,,,,,,7,7.81339,0,0,0,1,1,,,,,,,,,,,,,,,,
,,,,,,,stim/VC_09.wav,5ee579ecd4169f2bee94041e,2021-01-20_22h31.40.958,Spanish_step2,2020.2.3,Win32,60,,,right,1.73257,,,,,,,,0,1,1,8,1,,,,,,,,,,,,,,,,
,,,,,,,stim/VC_07.wav,5ee579ecd4169f2bee94041e,2021-01-20_22h31.40.958,Spanish_step2,2020.2.3,Win32,60,,,right,0.575255,,,,,,,,0,2,2,6,1,,,,,,,,,,,,,,,,
,,,,,,,stim/VC_05.wav,5ee579ecd4169f2bee94041e,2021-01-20_22h31.40.958,Spanish_step2,2020.2.3,Win32,60,,,right,0.395585,,,,,,,,0,3,3,4,1,,,,,,,,,,,,,,,,
,,,,,,,stim/VC_11.wav,5ee579ecd4169f2bee94041e,2021-01-20_22h31.40.958,Spanish_step2,2020.2.3,Win32,60,,,right,0.411615,,,,,,,,0,4,4,10,1,,,,,,,,,,,,,,,,
,,,,,,,stim/VC_03.wav,5ee579ecd4169f2bee94041e,2021-01-20_22h31.40.958,Spanish_step2,2020.2.3,Win32,60,,,right,0.4745,,,,,,,,0,5,5,2,1,,,,,,,,,,,,,,,,
,,,,,,,stim/VC_04.wav,5ee579ecd4169f2bee94041e,2021-01-20_22h31.40.958,Spanish_step2,2020.2.3,Win32,60,,,right,0.945695,,,,,,,,0,6,6,3,1,,,,,,,,,,,,,,,,
,,,,,,,stim/VC_06.wav,5ee579ecd4169f2bee94041e,2021-01-20_22h31.40.958,Spanish_step2,2020.2.3,Win32,60,,,right,0.89069,,,,,,,,0,7,7,5,1,,,,,,,,,,,,,,,,
,,,,,,,stim/VC_10.wav,5ee579ecd4169f2bee94041e,2021-01-20_22h31.40.958,Spanish_step2,2020.2.3,Win32,60,,,right,0.584345,,,,,,,,0,8,8,9,1,,,,,,,,,,,,,,,,
,,,,,,,stim/VC_01.wav,5ee579ecd4169f2bee94041e,2021-01-20_22h31.40.958,Spanish_step2,2020.2.3,Win32,60,,,right,3.5756,,,,,,,,0,9,9,0,1,,,,,,,,,,,,,,,,
,,,,,,,stim/VC_08.wav,5ee579ecd4169f2bee94041e,2021-01-20_22h31.40.958,Spanish_step2,2020.2.3,Win32,60,,,right,1.2363,,,,,,,,0,10,10,7,1,,,,,,,,,,,,,,,,
,,,,,,,stim/VC_06.wav,5ee579ecd4169f2bee94041e,2021-01-20_22h31.40.958,Spanish_step2,2020.2.3,Win32,60,,,right,20.383525,,,,,,,,1,0,11,5,1,,,,,,,,,,,,,,,,
,,,,,,,stim/VC_05.wav,5ee579ecd4169f2bee94041e,2021-01-20_22h31.40.958,Spanish_step2,2020.2.3,Win32,60,,,right,1.3827,,,,,,,,1,1,12,4,1,,,,,,,,,,,,,,,,
,,,,,,,stim/VC_11.wav,5ee579ecd4169f2bee94041e,2021-01-20_22h31.40.958,Spanish_step2,2020.2.3,Win32,60,,,right,1.29965,,,,,,,,1,2,13,10,1,,,,,,,,,,,,,,,,
,,,,,,,stim/VC_03.wav,5ee579ecd4169f2bee94041e,2021-01-20_22h31.40.958,Spanish_step2,2020.2.3,Win32,60,,,right,0.45946,,,,,,,,1,3,14,2,1,,,,,,,,,,,,,,,,
,,,,,,,stim/VC_04.wav,5ee579ecd4169f2bee94041e,2021-01-20_22h31.40.958,Spanish_step2,2020.2.3,Win32,60,,,right,0.55814,,,,,,,,1,4,15,3,1,,,,,,,,,,,,,,,,
,,,,,,,stim/VC_10.wav,5ee579ecd4169f2bee94041e,2021-01-20_22h31.40.958,Spanish_step2,2020.2.3,Win32,60,,,left,1.013485,,,,,,,,1,5,16,9,1,,,,,,,,,,,,,,,,
,,,,,,,stim/VC_09.wav,5ee579ecd4169f2bee94041e,2021-01-20_22h31.40.958,Spanish_step2,2020.2.3,Win32,60,,,right,0.472935,,,,,,,,1,6,17,8,1,,,,,,,,,,,,,,,,
,,,,,,,stim/VC_01.wav,5ee579ecd4169f2bee94041e,2021-01-20_22h31.40.958,Spanish_step2,2020.2.3,Win32,60,,,right,0.54171,,,,,,,,1,7,18,0,1,,,,,,,,,,,,,,,,
,,,,,,,stim/VC_02.wav,5ee579ecd4169f2bee94041e,2021-01-20_22h31.40.958,Spanish_step2,2020.2.3,Win32,60,,,right,0.601395,,,,,,,,1,8,19,1,1,,,,,,,,,,,,,,,,
,,,,,,,stim/VC_07.wav,5ee579ecd4169f2bee94041e,2021-01-20_22h31.40.958,Spanish_step2,2020.2.3,Win32,60,,,right,0.618725,,,,,,,,1,9,20,6,1,,,,,,,,,,,,,,,,
,,,,,,,stim/VC_08.wav,5ee579ecd4169f2bee94041e,2021-01-20_22h31.40.958,Spanish_step2,2020.2.3,Win32,60,,,right,0.51679,,,,,,,,1,10,21,7,1,,,,,,,,,,,,,,,,
,,,,,,,stim2/pa+05.wav,5ee579ecd4169f2bee94041e,2021-01-20_22h31.40.958,Spanish_step2,2020.2.3,Win32,60,,,,,,,,,,,,,,,,,left,1.61087,0,0,0,0,1,,,,,,,,,
,,,,,,,stim2/pa+20.wav,5ee579ecd4169f2bee94041e,2021-01-20_22h31.40.958,Spanish_step2,2020.2.3,Win32,60,,,,,,,,,,,,,,,,,left,0.69126,0,1,1,3,1,,,,,,,,,
,,,,,,,stim2/pa-25.wav,5ee579ecd4169f2bee94041e,2021-01-20_22h31.40.958,Spanish_step2,2020.2.3,Win32,60,,,,,,,,,,,,,,,,,right,0.737265,0,2,2,14,1,,,,,,,,,
,,,,,,,stim2/pa+50.wav,5ee579ecd4169f2bee94041e,2021-01-20_22h31.40.958,Spanish_step2,2020.2.3,Win32,60,,,,,,,,,,,,,,,,,left,4.585575,0,3,3,9,1,,,,,,,,,
,,,,,,,stim2/pa+25.wav,5ee579ecd4169f2bee94041e,2021-01-20_22h31.40.958,Spanish_step2,2020.2.3,Win32,60,,,,,,,,,,,,,,,,,right,1.815745,0,4,4,4,1,,,,,,,,,
,,,,,,,stim2/pa-10.wav,5ee579ecd4169f2bee94041e,2021-01-20_22h31.40.958,Spanish_step2,2020.2.3,Win32,60,,,,,,,,,,,,,,,,,right,0.540105,0,5,5,11,1,,,,,,,,,
,,,,,,,stim2/pa+35.wav,5ee579ecd4169f2bee94041e,2021-01-20_22h31.40.958,Spanish_step2,2020.2.3,Win32,60,,,,,,,,,,,,,,,,,left,6.06208,0,6,6,6,1,,,,,,,,,
,,,,,,,stim2/pa-05.wav,5ee579ecd4169f2bee94041e,2021-01-20_22h31.40.958,Spanish_step2,2020.2.3,Win32,60,,,,,,,,,,,,,,,,,right,0.726835,0,7,7,10,1,,,,,,,,,
,,,,,,,stim2/pa-20.wav,5ee579ecd4169f2bee94041e,2021-01-20_22h31.40.958,Spanish_step2,2020.2.3,Win32,60,,,,,,,,,,,,,,,,,right,0.449645,0,8,8,13,1,,,,,,,,,
,,,,,,,stim2/pa+15.wav,5ee579ecd4169f2bee94041e,2021-01-20_22h31.40.958,Spanish_step2,2020.2.3,Win32,60,,,,,,,,,,,,,,,,,left,0.649795,0,9,9,2,1,,,,,,,,,
,,,,,,,stim2/pa+10.wav,5ee579ecd4169f2bee94041e,2021-01-20_22h31.40.958,Spanish_step2,2020.2.3,Win32,60,,,,,,,,,,,,,,,,,left,0.63304,0,10,10,1,1,,,,,,,,,
,,,,,,,stim2/pa-35.wav,5ee579ecd4169f2bee94041e,2021-01-20_22h31.40.958,Spanish_step2,2020.2.3,Win32,60,,,,,,,,,,,,,,,,,right,0.58321,0,11,11,16,1,,,,,,,,,
,,,,,,,stim2/pa+30.wav,5ee579ecd4169f2bee94041e,2021-01-20_22h31.40.958,Spanish_step2,2020.2.3,Win32,60,,,,,,,,,,,,,,,,,left,0.83902,0,12,12,5,1,,,,,,,,,
,,,,,,,stim2/pa-15.wav,5ee579ecd4169f2bee94041e,2021-01-20_22h31.40.958,Spanish_step2,2020.2.3,Win32,60,,,,,,,,,,,,,,,,,left,0.88958,0,13,13,12,1,,,,,,,,,
,,,,,,,stim2/pa+40.wav,5ee579ecd4169f2bee94041e,2021-01-20_22h31.40.958,Spanish_step2,2020.2.3,Win32,60,,,,,,,,,,,,,,,,,left,0.59983,0,14,14,7,1,,,,,,,,,
,,,,,,,stim2/pa+45.wav,5ee579ecd4169f2bee94041e,2021-01-20_22h31.40.958,Spanish_step2,2020.2.3,Win32,60,,,,,,,,,,,,,,,,,left,0.51695,0,15,15,8,1,,,,,,,,,
,,,,,,,stim2/pa-30.wav,5ee579ecd4169f2bee94041e,2021-01-20_22h31.40.958,Spanish_step2,2020.2.3,Win32,60,,,,,,,,,,,,,,,,,right,2.20534,0,16,16,15,1,,,,,,,,,
,,,,,,,stim2/pa+30.wav,5ee579ecd4169f2bee94041e,2021-01-20_22h31.40.958,Spanish_step2,2020.2.3,Win32,60,,,,,,,,,,,,,,,,,left,0.84282,1,0,17,5,1,,,,,,,,,
,,,,,,,stim2/pa-15.wav,5ee579ecd4169f2bee94041e,2021-01-20_22h31.40.958,Spanish_step2,2020.2.3,Win32,60,,,,,,,,,,,,,,,,,right,0.85905,1,1,18,12,1,,,,,,,,,
,,,,,,,stim2/pa-35.wav,5ee579ecd4169f2bee94041e,2021-01-20_22h31.40.958,Spanish_step2,2020.2.3,Win32,60,,,,,,,,,,,,,,,,,right,0.70012,1,2,19,16,1,,,,,,,,,
,,,,,,,stim2/pa+20.wav,5ee579ecd4169f2bee94041e,2021-01-20_22h31.40.958,Spanish_step2,2020.2.3,Win32,60,,,,,,,,,,,,,,,,,left,0.788225,1,3,20,3,1,,,,,,,,,
,,,,,,,stim2/pa-25.wav,5ee579ecd4169f2bee94041e,2021-01-20_22h31.40.958,Spanish_step2,2020.2.3,Win32,60,,,,,,,,,,,,,,,,,right,0.933285,1,4,21,14,1,,,,,,,,,
,,,,,,,stim2/pa+40.wav,5ee579ecd4169f2bee94041e,2021-01-20_22h31.40.958,Spanish_step2,2020.2.3,Win32,60,,,,,,,,,,,,,,,,,left,0.80283,1,5,22,7,1,,,,,,,,,
,,,,,,,stim2/pa-05.wav,5ee579ecd4169f2bee94041e,2021-01-20_22h31.40.958,Spanish_step2,2020.2.3,Win32,60,,,,,,,,,,,,,,,,,right,1.943305,1,6,23,10,1,,,,,,,,,
,,,,,,,stim2/pa+35.wav,5ee579ecd4169f2bee94041e,2021-01-20_22h31.40.958,Spanish_step2,2020.2.3,Win32,60,,,,,,,,,,,,,,,,,left,0.65907,1,7,24,6,1,,,,,,,,,
,,,,,,,stim2/pa+15.wav,5ee579ecd4169f2bee94041e,2021-01-20_22h31.40.958,Spanish_step2,2020.2.3,Win32,60,,,,,,,,,,,,,,,,,left,0.45784,1,8,25,2,1,,,,,,,,,
,,,,,,,stim2/pa+45.wav,5ee579ecd4169f2bee94041e,2021-01-20_22h31.40.958,Spanish_step2,2020.2.3,Win32,60,,,,,,,,,,,,,,,,,left,0.617485,1,9,26,8,1,,,,,,,,,
,,,,,,,stim2/pa+50.wav,5ee579ecd4169f2bee94041e,2021-01-20_22h31.40.958,Spanish_step2,2020.2.3,Win32,60,,,,,,,,,,,,,,,,,left,0.652795,1,10,27,9,1,,,,,,,,,
,,,,,,,stim2/pa+25.wav,5ee579ecd4169f2bee94041e,2021-01-20_22h31.40.958,Spanish_step2,2020.2.3,Win32,60,,,,,,,,,,,,,,,,,left,0.636505,1,11,28,4,1,,,,,,,,,
,,,,,,,stim2/pa+05.wav,5ee579ecd4169f2bee94041e,2021-01-20_22h31.40.958,Spanish_step2,2020.2.3,Win32,60,,,,,,,,,,,,,,,,,left,0.78452,1,12,29,0,1,,,,,,,,,
,,,,,,,stim2/pa-10.wav,5ee579ecd4169f2bee94041e,2021-01-20_22h31.40.958,Spanish_step2,2020.2.3,Win32,60,,,,,,,,,,,,,,,,,right,0.73331,1,13,30,11,1,,,,,,,,,
,,,,,,,stim2/pa+10.wav,5ee579ecd4169f2bee94041e,2021-01-20_22h31.40.958,Spanish_step2,2020.2.3,Win32,60,,,,,,,,,,,,,,,,,right,1.00158,1,14,31,1,1,,,,,,,,,
,,,,,,,stim2/pa-20.wav,5ee579ecd4169f2bee94041e,2021-01-20_22h31.40.958,Spanish_step2,2020.2.3,Win32,60,,,,,,,,,,,,,,,,,right,0.51135,1,15,32,13,1,,,,,,,,,
,,,,,,,stim2/pa-30.wav,5ee579ecd4169f2bee94041e,2021-01-20_22h31.40.958,Spanish_step2,2020.2.3,Win32,60,,,,,,,,,,,,,,,,,right,0.52486,1,16,33,15,1,,,,,,,,,
,,,,,,,stim2/pa-20.wav,5ee579ecd4169f2bee94041e,2021-01-20_22h31.40.958,Spanish_step2,2020.2.3,Win32,60,,,,,,,,,,,,,,,,,right,0.433005,2,0,34,13,1,,,,,,,,,
,,,,,,,stim2/pa+25.wav,5ee579ecd4169f2bee94041e,2021-01-20_22h31.40.958,Spanish_step2,2020.2.3,Win32,60,,,,,,,,,,,,,,,,,right,0.506645,2,1,35,4,1,,,,,,,,,
,,,,,,,stim2/pa-15.wav,5ee579ecd4169f2bee94041e,2021-01-20_22h31.40.958,Spanish_step2,2020.2.3,Win32,60,,,,,,,,,,,,,,,,,right,0.433705,2,2,36,12,1,,,,,,,,,
,,,,,,,stim2/pa-10.wav,5ee579ecd4169f2bee94041e,2021-01-20_22h31.40.958,Spanish_step2,2020.2.3,Win32,60,,,,,,,,,,,,,,,,,right,0.437935,2,3,37,11,1,,,,,,,,,
,,,,,,,stim2/pa+10.wav,5ee579ecd4169f2bee94041e,2021-01-20_22h31.40.958,Spanish_step2,2020.2.3,Win32,60,,,,,,,,,,,,,,,,,left,0.61613,2,4,38,1,1,,,,,,,,,
,,,,,,,stim2/pa+35.wav,5ee579ecd4169f2bee94041e,2021-01-20_22h31.40.958,Spanish_step2,2020.2.3,Win32,60,,,,,,,,,,,,,,,,,left,0.59468,2,5,39,6,1,,,,,,,,,
,,,,,,,stim2/pa-05.wav,5ee579ecd4169f2bee94041e,2021-01-20_22h31.40.958,Spanish_step2,2020.2.3,Win32,60,,,,,,,,,,,,,,,,,left,0.856525,2,6,40,10,1,,,,,,,,,
,,,,,,,stim2/pa-35.wav,5ee579ecd4169f2bee94041e,2021-01-20_22h31.40.958,Spanish_step2,2020.2.3,Win32,60,,,,,,,,,,,,,,,,,right,0.516955,2,7,41,16,1,,,,,,,,,
,,,,,,,stim2/pa-30.wav,5ee579ecd4169f2bee94041e,2021-01-20_22h31.40.958,Spanish_step2,2020.2.3,Win32,60,,,,,,,,,,,,,,,,,right,0.483675,2,8,42,15,1,,,,,,,,,
,,,,,,,stim2/pa+45.wav,5ee579ecd4169f2bee94041e,2021-01-20_22h31.40.958,Spanish_step2,2020.2.3,Win32,60,,,,,,,,,,,,,,,,,left,0.63346,2,9,43,8,1,,,,,,,,,
,,,,,,,stim2/pa+20.wav,5ee579ecd4169f2bee94041e,2021-01-20_22h31.40.958,Spanish_step2,2020.2.3,Win32,60,,,,,,,,,,,,,,,,,left,0.59969,2,10,44,3,1,,,,,,,,,
,,,,,,,stim2/pa-25.wav,5ee579ecd4169f2bee94041e,2021-01-20_22h31.40.958,Spanish_step2,2020.2.3,Win32,60,,,,,,,,,,,,,,,,,right,0.54139,2,11,45,14,1,,,,,,,,,
,,,,,,,stim2/pa+05.wav,5ee579ecd4169f2bee94041e,2021-01-20_22h31.40.958,Spanish_step2,2020.2.3,Win32,60,,,,,,,,,,,,,,,,,left,0.590225,2,12,46,0,1,,,,,,,,,
,,,,,,,stim2/pa+50.wav,5ee579ecd4169f2bee94041e,2021-01-20_22h31.40.958,Spanish_step2,2020.2.3,Win32,60,,,,,,,,,,,,,,,,,right,0.78311,2,13,47,9,1,,,,,,,,,
,,,,,,,stim2/pa+15.wav,5ee579ecd4169f2bee94041e,2021-01-20_22h31.40.958,Spanish_step2,2020.2.3,Win32,60,,,,,,,,,,,,,,,,,left,0.67134,2,14,48,2,1,,,,,,,,,
,,,,,,,stim2/pa+40.wav,5ee579ecd4169f2bee94041e,2021-01-20_22h31.40.958,Spanish_step2,2020.2.3,Win32,60,,,,,,,,,,,,,,,,,left,0.51016,2,15,49,7,1,,,,,,,,,
,,,,,,,stim2/pa+30.wav,5ee579ecd4169f2bee94041e,2021-01-20_22h31.40.958,Spanish_step2,2020.2.3,Win32,60,,,,,,,,,,,,,,,,,left,0.483985,2,16,50,5,1,,,,,,,,,
,,,,,,,stim2/pa+45.wav,5ee579ecd4169f2bee94041e,2021-01-20_22h31.40.958,Spanish_step2,2020.2.3,Win32,60,,,,,,,,,,,,,,,,,left,1.49606,,,,,,z,7.637015,0,0,0,8,1,,
,,,,,,,stim2/pa+50.wav,5ee579ecd4169f2bee94041e,2021-01-20_22h31.40.958,Spanish_step2,2020.2.3,Win32,60,,,,,,,,,,,,,,,,,left,0.49625,,,,,,,,0,1,1,9,1,,
,,,,,,,stim2/pa-15.wav,5ee579ecd4169f2bee94041e,2021-01-20_22h31.40.958,Spanish_step2,2020.2.3,Win32,60,,,,,,,,,,,,,,,,,right,0.4609,,,,,,,,0,2,2,12,1,,
,,,,,,,stim2/pa-25.wav,5ee579ecd4169f2bee94041e,2021-01-20_22h31.40.958,Spanish_step2,2020.2.3,Win32,60,,,,,,,,,,,,,,,,,right,1.724305,,,,,,,,0,3,3,14,1,,
,,,,,,,stim2/pa+35.wav,5ee579ecd4169f2bee94041e,2021-01-20_22h31.40.958,Spanish_step2,2020.2.3,Win32,60,,,,,,,,,,,,,,,,,right,1.49984,,,,,,,,0,4,4,6,1,,
,,,,,,,stim2/pa+30.wav,5ee579ecd4169f2bee94041e,2021-01-20_22h31.40.958,Spanish_step2,2020.2.3,Win32,60,,,,,,,,,,,,,,,,,right,0.575595,,,,,,,,0,5,5,5,1,,
,,,,,,,stim2/pa+20.wav,5ee579ecd4169f2bee94041e,2021-01-20_22h31.40.958,Spanish_step2,2020.2.3,Win32,60,,,,,,,,,,,,,,,,,left,0.649785,,,,,,,,0,6,6,3,1,,
,,,,,,,stim2/pa-20.wav,5ee579ecd4169f2bee94041e,2021-01-20_22h31.40.958,Spanish_step2,2020.2.3,Win32,60,,,,,,,,,,,,,,,,,right,0.7579,,,,,,,,0,7,7,13,1,,
,,,,,,,stim2/pa-05.wav,5ee579ecd4169f2bee94041e,2021-01-20_22h31.40.958,Spanish_step2,2020.2.3,Win32,60,,,,,,,,,,,,,,,,,left,0.48656,,,,,,,,0,8,8,10,1,,
,,,,,,,stim2/pa+25.wav,5ee579ecd4169f2bee94041e,2021-01-20_22h31.40.958,Spanish_step2,2020.2.3,Win32,60,,,,,,,,,,,,,,,,,left,0.707055,,,,,,,,0,9,9,4,1,,
,,,,,,,stim2/pa-30.wav,5ee579ecd4169f2bee94041e,2021-01-20_22h31.40.958,Spanish_step2,2020.2.3,Win32,60,,,,,,,,,,,,,,,,,left,0.7833,,,,,,,,0,10,10,15,1,,
,,,,,,,stim2/pa-10.wav,5ee579ecd4169f2bee94041e,2021-01-20_22h31.40.958,Spanish_step2,2020.2.3,Win32,60,,,,,,,,,,,,,,,,,right,0.766825,,,,,,,,0,11,11,11,1,,
,,,,,,,stim2/pa+40.wav,5ee579ecd4169f2bee94041e,2021-01-20_22h31.40.958,Spanish_step2,2020.2.3,Win32,60,,,,,,,,,,,,,,,,,left,0.639955,,,,,,,,0,12,12,7,1,,
,,,,,,,stim2/pa+15.wav,5ee579ecd4169f2bee94041e,2021-01-20_22h31.40.958,Spanish_step2,2020.2.3,Win32,60,,,,,,,,,,,,,,,,,left,0.46236,,,,,,,,0,13,13,2,1,,
,,,,,,,stim2/pa+10.wav,5ee579ecd4169f2bee94041e,2021-01-20_22h31.40.958,Spanish_step2,2020.2.3,Win32,60,,,,,,,,,,,,,,,,,left,0.475565,,,,,,,,0,14,14,1,1,,
,,,,,,,stim2/pa-35.wav,5ee579ecd4169f2bee94041e,2021-01-20_22h31.40.958,Spanish_step2,2020.2.3,Win32,60,,,,,,,,,,,,,,,,,right,0.75731,,,,,,,,0,15,15,16,1,,
,,,,,,,stim2/pa+05.wav,5ee579ecd4169f2bee94041e,2021-01-20_22h31.40.958,Spanish_step2,2020.2.3,Win32,60,,,,,,,,,,,,,,,,,left,0.666505,,,,,,,,0,16,16,0,1,,
,,,,,,,stim2/pa+45.wav,5ee579ecd4169f2bee94041e,2021-01-20_22h31.40.958,Spanish_step2,2020.2.3,Win32,60,,,,,,,,,,,,,,,,,left,0.61663,,,,,,,,1,0,17,8,1,,
,,,,,,,stim2/pa+15.wav,5ee579ecd4169f2bee94041e,2021-01-20_22h31.40.958,Spanish_step2,2020.2.3,Win32,60,,,,,,,,,,,,,,,,,left,0.422005,,,,,,,,1,1,18,2,1,,
,,,,,,,stim2/pa+25.wav,5ee579ecd4169f2bee94041e,2021-01-20_22h31.40.958,Spanish_step2,2020.2.3,Win32,60,,,,,,,,,,,,,,,,,left,0.35854,,,,,,,,1,2,19,4,1,,
,,,,,,,stim2/pa+10.wav,5ee579ecd4169f2bee94041e,2021-01-20_22h31.40.958,Spanish_step2,2020.2.3,Win32,60,,,,,,,,,,,,,,,,,left,0.48705,,,,,,,,1,3,20,1,1,,
,,,,,,,stim2/pa+35.wav,5ee579ecd4169f2bee94041e,2021-01-20_22h31.40.958,Spanish_step2,2020.2.3,Win32,60,,,,,,,,,,,,,,,,,left,0.46815,,,,,,,,1,4,21,6,1,,
,,,,,,,stim2/pa-30.wav,5ee579ecd4169f2bee94041e,2021-01-20_22h31.40.958,Spanish_step2,2020.2.3,Win32,60,,,,,,,,,,,,,,,,,right,0.71656,,,,,,,,1,5,22,15,1,,
,,,,,,,stim2/pa+40.wav,5ee579ecd4169f2bee94041e,2021-01-20_22h31.40.958,Spanish_step2,2020.2.3,Win32,60,,,,,,,,,,,,,,,,,left,0.702785,,,,,,,,1,6,23,7,1,,
,,,,,,,stim2/pa-35.wav,5ee579ecd4169f2bee94041e,2021-01-20_22h31.40.958,Spanish_step2,2020.2.3,Win32,60,,,,,,,,,,,,,,,,,right,0.709965,,,,,,,,1,7,24,16,1,,
,,,,,,,stim2/pa+20.wav,5ee579ecd4169f2bee94041e,2021-01-20_22h31.40.958,Spanish_step2,2020.2.3,Win32,60,,,,,,,,,,,,,,,,,left,0.56941,,,,,,,,1,8,25,3,1,,
,,,,,,,stim2/pa+05.wav,5ee579ecd4169f2bee94041e,2021-01-20_22h31.40.958,Spanish_step2,2020.2.3,Win32,60,,,,,,,,,,,,,,,,,left,0.586805,,,,,,,,1,9,26,0,1,,
,,,,,,,stim2/pa-20.wav,5ee579ecd4169f2bee94041e,2021-01-20_22h31.40.958,Spanish_step2,2020.2.3,Win32,60,,,,,,,,,,,,,,,,,right,0.749115,,,,,,,,1,10,27,13,1,,
,,,,,,,stim2/pa+50.wav,5ee579ecd4169f2bee94041e,2021-01-20_22h31.40.958,Spanish_step2,2020.2.3,Win32,60,,,,,,,,,,,,,,,,,left,0.740765,,,,,,,,1,11,28,9,1,,
,,,,,,,stim2/pa-25.wav,5ee579ecd4169f2bee94041e,2021-01-20_22h31.40.958,Spanish_step2,2020.2.3,Win32,60,,,,,,,,,,,,,,,,,left,0.610095,,,,,,,,1,12,29,14,1,,
,,,,,,,stim2/pa-05.wav,5ee579ecd4169f2bee94041e,2021-01-20_22h31.40.958,Spanish_step2,2020.2.3,Win32,60,,,,,,,,,,,,,,,,,right,0.595415,,,,,,,,1,13,30,10,1,,
,,,,,,,stim2/pa+30.wav,5ee579ecd4169f2bee94041e,2021-01-20_22h31.40.958,Spanish_step2,2020.2.3,Win32,60,,,,,,,,,,,,,,,,,left,0.733155,,,,,,,,1,14,31,5,1,,
,,,,,,,stim2/pa-15.wav,5ee579ecd4169f2bee94041e,2021-01-20_22h31.40.958,Spanish_step2,2020.2.3,Win32,60,,,,,,,,,,,,,,,,,right,0.47324,,,,,,,,1,15,32,12,1,,
,,,,,,,stim2/pa-10.wav,5ee579ecd4169f2bee94041e,2021-01-20_22h31.40.958,Spanish_step2,2020.2.3,Win32,60,,,,,,,,,,,,,,,,,right,0.462865,,,,,,,,1,16,33,11,1,,
,,,,,,,,5ee579ecd4169f2bee94041e,2021-01-20_22h31.40.958,Spanish_step2,2020.2.3,Win32,60,,,,,,,,,,,,,,,,,,,,,,,,,,,,,,,space,8.046795
