resp.keys,resp.rt,trials.thisRepN,trials.thisTrialN,trials.thisN,trials.thisIndex,trials.ran,stimuli,participant,date,expName,psychopyVersion,OS,frameRate,gotResponse.keys,gotResponse.rt,resp_2.keys,resp_2.rt,trials_2.thisRepN,trials_2.thisTrialN,trials_2.thisN,trials_2.thisIndex,trials_2.ran,key_resp_3.keys,key_resp_3.rt,trials_4.thisRepN,trials_4.thisTrialN,trials_4.thisN,trials_4.thisIndex,trials_4.ran,resp_3.keys,resp_3.rt,trials_3.thisRepN,trials_3.thisTrialN,trials_3.thisN,trials_3.thisIndex,trials_3.ran,key_resp_2.keys,key_resp_2.rt,trials_5.thisRepN,trials_5.thisTrialN,trials_5.thisN,trials_5.thisIndex,trials_5.ran,key_resp.keys,key_resp.rt
left,3.026005,0,0,0,0,1,stim/VC_01.wav,5f2bffa8d4f0d601244ab240,2020-12-17_17h44.43.798,Spanish_step2,2020.2.3,MacIntel,60,,,,,,,,,,,,,,,,,,,,,,,,,,,,,,,,
right,0.900535,0,1,1,1,1,stim/VC_11.wav,5f2bffa8d4f0d601244ab240,2020-12-17_17h44.43.798,Spanish_step2,2020.2.3,MacIntel,60,,,,,,,,,,,,,,,,,,,,,,,,,,,,,,,,
,,,,,,,stim/VC_07.wav,5f2bffa8d4f0d601244ab240,2020-12-17_17h44.43.798,Spanish_step2,2020.2.3,MacIntel,60,space,2.21701,right,1.50279,0,0,0,6,1,,,,,,,,,,,,,,,,,,,,,,,
,,,,,,,stim/VC_06.wav,5f2bffa8d4f0d601244ab240,2020-12-17_17h44.43.798,Spanish_step2,2020.2.3,MacIntel,60,,,right,0.64694,0,1,1,5,1,,,,,,,,,,,,,,,,,,,,,,,
,,,,,,,stim/VC_09.wav,5f2bffa8d4f0d601244ab240,2020-12-17_17h44.43.798,Spanish_step2,2020.2.3,MacIntel,60,,,right,0.73363,0,2,2,8,1,,,,,,,,,,,,,,,,,,,,,,,
,,,,,,,stim/VC_10.wav,5f2bffa8d4f0d601244ab240,2020-12-17_17h44.43.798,Spanish_step2,2020.2.3,MacIntel,60,,,right,0.650635,0,3,3,9,1,,,,,,,,,,,,,,,,,,,,,,,
,,,,,,,stim/VC_04.wav,5f2bffa8d4f0d601244ab240,2020-12-17_17h44.43.798,Spanish_step2,2020.2.3,MacIntel,60,,,left,0.633875,0,4,4,3,1,,,,,,,,,,,,,,,,,,,,,,,
,,,,,,,stim/VC_01.wav,5f2bffa8d4f0d601244ab240,2020-12-17_17h44.43.798,Spanish_step2,2020.2.3,MacIntel,60,,,left,0.71622,0,5,5,0,1,,,,,,,,,,,,,,,,,,,,,,,
,,,,,,,stim/VC_05.wav,5f2bffa8d4f0d601244ab240,2020-12-17_17h44.43.798,Spanish_step2,2020.2.3,MacIntel,60,,,right,0.80036,0,6,6,4,1,,,,,,,,,,,,,,,,,,,,,,,
,,,,,,,stim/VC_11.wav,5f2bffa8d4f0d601244ab240,2020-12-17_17h44.43.798,Spanish_step2,2020.2.3,MacIntel,60,,,right,0.618205,0,7,7,10,1,,,,,,,,,,,,,,,,,,,,,,,
,,,,,,,stim/VC_03.wav,5f2bffa8d4f0d601244ab240,2020-12-17_17h44.43.798,Spanish_step2,2020.2.3,MacIntel,60,,,left,0.785975,0,8,8,2,1,,,,,,,,,,,,,,,,,,,,,,,
,,,,,,,stim/VC_02.wav,5f2bffa8d4f0d601244ab240,2020-12-17_17h44.43.798,Spanish_step2,2020.2.3,MacIntel,60,,,left,0.671975,0,9,9,1,1,,,,,,,,,,,,,,,,,,,,,,,
,,,,,,,stim/VC_08.wav,5f2bffa8d4f0d601244ab240,2020-12-17_17h44.43.798,Spanish_step2,2020.2.3,MacIntel,60,,,right,0.73305,0,10,10,7,1,,,,,,,,,,,,,,,,,,,,,,,
,,,,,,,stim/VC_01.wav,5f2bffa8d4f0d601244ab240,2020-12-17_17h44.43.798,Spanish_step2,2020.2.3,MacIntel,60,,,left,0.70495,1,0,11,0,1,,,,,,,,,,,,,,,,,,,,,,,
,,,,,,,stim/VC_04.wav,5f2bffa8d4f0d601244ab240,2020-12-17_17h44.43.798,Spanish_step2,2020.2.3,MacIntel,60,,,right,0.61963,1,1,12,3,1,,,,,,,,,,,,,,,,,,,,,,,
,,,,,,,stim/VC_02.wav,5f2bffa8d4f0d601244ab240,2020-12-17_17h44.43.798,Spanish_step2,2020.2.3,MacIntel,60,,,left,0.718165,1,2,13,1,1,,,,,,,,,,,,,,,,,,,,,,,
,,,,,,,stim/VC_10.wav,5f2bffa8d4f0d601244ab240,2020-12-17_17h44.43.798,Spanish_step2,2020.2.3,MacIntel,60,,,right,0.66779,1,3,14,9,1,,,,,,,,,,,,,,,,,,,,,,,
,,,,,,,stim/VC_11.wav,5f2bffa8d4f0d601244ab240,2020-12-17_17h44.43.798,Spanish_step2,2020.2.3,MacIntel,60,,,right,0.75038,1,4,15,10,1,,,,,,,,,,,,,,,,,,,,,,,
,,,,,,,stim/VC_09.wav,5f2bffa8d4f0d601244ab240,2020-12-17_17h44.43.798,Spanish_step2,2020.2.3,MacIntel,60,,,right,0.666665,1,5,16,8,1,,,,,,,,,,,,,,,,,,,,,,,
,,,,,,,stim/VC_08.wav,5f2bffa8d4f0d601244ab240,2020-12-17_17h44.43.798,Spanish_step2,2020.2.3,MacIntel,60,,,right,0.73351,1,6,17,7,1,,,,,,,,,,,,,,,,,,,,,,,
,,,,,,,stim/VC_03.wav,5f2bffa8d4f0d601244ab240,2020-12-17_17h44.43.798,Spanish_step2,2020.2.3,MacIntel,60,,,left,0.80095,1,7,18,2,1,,,,,,,,,,,,,,,,,,,,,,,
,,,,,,,stim/VC_07.wav,5f2bffa8d4f0d601244ab240,2020-12-17_17h44.43.798,Spanish_step2,2020.2.3,MacIntel,60,,,right,0.750185,1,8,19,6,1,,,,,,,,,,,,,,,,,,,,,,,
,,,,,,,stim/VC_05.wav,5f2bffa8d4f0d601244ab240,2020-12-17_17h44.43.798,Spanish_step2,2020.2.3,MacIntel,60,,,right,0.699665,1,9,20,4,1,,,,,,,,,,,,,,,,,,,,,,,
,,,,,,,stim/VC_06.wav,5f2bffa8d4f0d601244ab240,2020-12-17_17h44.43.798,Spanish_step2,2020.2.3,MacIntel,60,,,right,0.717865,1,10,21,5,1,,,,,,,,,,,,,,,,,,,,,,,
,,,,,,,stim/VC_07.wav,5f2bffa8d4f0d601244ab240,2020-12-17_17h44.43.798,Spanish_step2,2020.2.3,MacIntel,60,,,right,0.78442,2,0,22,6,1,,,,,,,,,,,,,,,,,,,,,,,
,,,,,,,stim/VC_01.wav,5f2bffa8d4f0d601244ab240,2020-12-17_17h44.43.798,Spanish_step2,2020.2.3,MacIntel,60,,,left,0.63411,2,1,23,0,1,,,,,,,,,,,,,,,,,,,,,,,
,,,,,,,stim/VC_02.wav,5f2bffa8d4f0d601244ab240,2020-12-17_17h44.43.798,Spanish_step2,2020.2.3,MacIntel,60,,,left,0.671935,2,2,24,1,1,,,,,,,,,,,,,,,,,,,,,,,
,,,,,,,stim/VC_05.wav,5f2bffa8d4f0d601244ab240,2020-12-17_17h44.43.798,Spanish_step2,2020.2.3,MacIntel,60,,,right,0.9512,2,3,25,4,1,,,,,,,,,,,,,,,,,,,,,,,
,,,,,,,stim/VC_08.wav,5f2bffa8d4f0d601244ab240,2020-12-17_17h44.43.798,Spanish_step2,2020.2.3,MacIntel,60,,,right,0.950775,2,4,26,7,1,,,,,,,,,,,,,,,,,,,,,,,
,,,,,,,stim/VC_11.wav,5f2bffa8d4f0d601244ab240,2020-12-17_17h44.43.798,Spanish_step2,2020.2.3,MacIntel,60,,,right,0.52161,2,5,27,10,1,,,,,,,,,,,,,,,,,,,,,,,
,,,,,,,stim/VC_04.wav,5f2bffa8d4f0d601244ab240,2020-12-17_17h44.43.798,Spanish_step2,2020.2.3,MacIntel,60,,,right,0.55049,2,6,28,3,1,,,,,,,,,,,,,,,,,,,,,,,
,,,,,,,stim/VC_03.wav,5f2bffa8d4f0d601244ab240,2020-12-17_17h44.43.798,Spanish_step2,2020.2.3,MacIntel,60,,,left,0.73574,2,7,29,2,1,,,,,,,,,,,,,,,,,,,,,,,
,,,,,,,stim/VC_10.wav,5f2bffa8d4f0d601244ab240,2020-12-17_17h44.43.798,Spanish_step2,2020.2.3,MacIntel,60,,,right,0.567515,2,8,30,9,1,,,,,,,,,,,,,,,,,,,,,,,
,,,,,,,stim/VC_09.wav,5f2bffa8d4f0d601244ab240,2020-12-17_17h44.43.798,Spanish_step2,2020.2.3,MacIntel,60,,,right,0.652175,2,9,31,8,1,,,,,,,,,,,,,,,,,,,,,,,
,,,,,,,stim/VC_06.wav,5f2bffa8d4f0d601244ab240,2020-12-17_17h44.43.798,Spanish_step2,2020.2.3,MacIntel,60,,,right,0.58178,2,10,32,5,1,,,,,,,,,,,,,,,,,,,,,,,
,,,,,,,stim/VC_05.wav,5f2bffa8d4f0d601244ab240,2020-12-17_17h44.43.798,Spanish_step2,2020.2.3,MacIntel,60,,,right,1.615925,,,,,,7,9.25356,0,0,0,4,1,,,,,,,,,,,,,,,,
,,,,,,,stim/VC_09.wav,5f2bffa8d4f0d601244ab240,2020-12-17_17h44.43.798,Spanish_step2,2020.2.3,MacIntel,60,,,right,0.900045,,,,,,,,0,1,1,8,1,,,,,,,,,,,,,,,,
,,,,,,,stim/VC_03.wav,5f2bffa8d4f0d601244ab240,2020-12-17_17h44.43.798,Spanish_step2,2020.2.3,MacIntel,60,,,left,0.784745,,,,,,,,0,2,2,2,1,,,,,,,,,,,,,,,,
,,,,,,,stim/VC_10.wav,5f2bffa8d4f0d601244ab240,2020-12-17_17h44.43.798,Spanish_step2,2020.2.3,MacIntel,60,,,right,0.505,,,,,,,,0,3,3,9,1,,,,,,,,,,,,,,,,
,,,,,,,stim/VC_02.wav,5f2bffa8d4f0d601244ab240,2020-12-17_17h44.43.798,Spanish_step2,2020.2.3,MacIntel,60,,,left,0.517365,,,,,,,,0,4,4,1,1,,,,,,,,,,,,,,,,
,,,,,,,stim/VC_11.wav,5f2bffa8d4f0d601244ab240,2020-12-17_17h44.43.798,Spanish_step2,2020.2.3,MacIntel,60,,,right,0.51727,,,,,,,,0,5,5,10,1,,,,,,,,,,,,,,,,
,,,,,,,stim/VC_04.wav,5f2bffa8d4f0d601244ab240,2020-12-17_17h44.43.798,Spanish_step2,2020.2.3,MacIntel,60,,,left,0.599335,,,,,,,,0,6,6,3,1,,,,,,,,,,,,,,,,
,,,,,,,stim/VC_07.wav,5f2bffa8d4f0d601244ab240,2020-12-17_17h44.43.798,Spanish_step2,2020.2.3,MacIntel,60,,,right,0.534155,,,,,,,,0,7,7,6,1,,,,,,,,,,,,,,,,
,,,,,,,stim/VC_06.wav,5f2bffa8d4f0d601244ab240,2020-12-17_17h44.43.798,Spanish_step2,2020.2.3,MacIntel,60,,,right,0.70092,,,,,,,,0,8,8,5,1,,,,,,,,,,,,,,,,
,,,,,,,stim/VC_08.wav,5f2bffa8d4f0d601244ab240,2020-12-17_17h44.43.798,Spanish_step2,2020.2.3,MacIntel,60,,,right,0.61862,,,,,,,,0,9,9,7,1,,,,,,,,,,,,,,,,
,,,,,,,stim/VC_01.wav,5f2bffa8d4f0d601244ab240,2020-12-17_17h44.43.798,Spanish_step2,2020.2.3,MacIntel,60,,,left,1.11657,,,,,,,,0,10,10,0,1,,,,,,,,,,,,,,,,
,,,,,,,stim/VC_02.wav,5f2bffa8d4f0d601244ab240,2020-12-17_17h44.43.798,Spanish_step2,2020.2.3,MacIntel,60,,,left,0.71728,,,,,,,,1,0,11,1,1,,,,,,,,,,,,,,,,
,,,,,,,stim/VC_03.wav,5f2bffa8d4f0d601244ab240,2020-12-17_17h44.43.798,Spanish_step2,2020.2.3,MacIntel,60,,,left,0.73275,,,,,,,,1,1,12,2,1,,,,,,,,,,,,,,,,
,,,,,,,stim/VC_05.wav,5f2bffa8d4f0d601244ab240,2020-12-17_17h44.43.798,Spanish_step2,2020.2.3,MacIntel,60,,,right,0.68457,,,,,,,,1,2,13,4,1,,,,,,,,,,,,,,,,
,,,,,,,stim/VC_10.wav,5f2bffa8d4f0d601244ab240,2020-12-17_17h44.43.798,Spanish_step2,2020.2.3,MacIntel,60,,,right,0.633245,,,,,,,,1,3,14,9,1,,,,,,,,,,,,,,,,
,,,,,,,stim/VC_08.wav,5f2bffa8d4f0d601244ab240,2020-12-17_17h44.43.798,Spanish_step2,2020.2.3,MacIntel,60,,,right,0.670015,,,,,,,,1,4,15,7,1,,,,,,,,,,,,,,,,
,,,,,,,stim/VC_06.wav,5f2bffa8d4f0d601244ab240,2020-12-17_17h44.43.798,Spanish_step2,2020.2.3,MacIntel,60,,,right,0.76892,,,,,,,,1,5,16,5,1,,,,,,,,,,,,,,,,
,,,,,,,stim/VC_01.wav,5f2bffa8d4f0d601244ab240,2020-12-17_17h44.43.798,Spanish_step2,2020.2.3,MacIntel,60,,,left,0.716775,,,,,,,,1,6,17,0,1,,,,,,,,,,,,,,,,
,,,,,,,stim/VC_07.wav,5f2bffa8d4f0d601244ab240,2020-12-17_17h44.43.798,Spanish_step2,2020.2.3,MacIntel,60,,,right,0.833645,,,,,,,,1,7,18,6,1,,,,,,,,,,,,,,,,
,,,,,,,stim/VC_04.wav,5f2bffa8d4f0d601244ab240,2020-12-17_17h44.43.798,Spanish_step2,2020.2.3,MacIntel,60,,,right,0.883865,,,,,,,,1,8,19,3,1,,,,,,,,,,,,,,,,
,,,,,,,stim/VC_09.wav,5f2bffa8d4f0d601244ab240,2020-12-17_17h44.43.798,Spanish_step2,2020.2.3,MacIntel,60,,,right,0.984115,,,,,,,,1,9,20,8,1,,,,,,,,,,,,,,,,
,,,,,,,stim/VC_11.wav,5f2bffa8d4f0d601244ab240,2020-12-17_17h44.43.798,Spanish_step2,2020.2.3,MacIntel,60,,,right,0.883915,,,,,,,,1,10,21,10,1,,,,,,,,,,,,,,,,
,,,,,,,stim2/pa-30.wav,5f2bffa8d4f0d601244ab240,2020-12-17_17h44.43.798,Spanish_step2,2020.2.3,MacIntel,60,,,,,,,,,,,,,,,,,right,1.51778,0,0,0,15,1,,,,,,,,,
,,,,,,,stim2/pa+15.wav,5f2bffa8d4f0d601244ab240,2020-12-17_17h44.43.798,Spanish_step2,2020.2.3,MacIntel,60,,,,,,,,,,,,,,,,,left,0.91746,0,1,1,2,1,,,,,,,,,
,,,,,,,stim2/pa+25.wav,5f2bffa8d4f0d601244ab240,2020-12-17_17h44.43.798,Spanish_step2,2020.2.3,MacIntel,60,,,,,,,,,,,,,,,,,left,1.100465,0,2,2,4,1,,,,,,,,,
,,,,,,,stim2/pa+50.wav,5f2bffa8d4f0d601244ab240,2020-12-17_17h44.43.798,Spanish_step2,2020.2.3,MacIntel,60,,,,,,,,,,,,,,,,,left,0.93408,0,3,3,9,1,,,,,,,,,
,,,,,,,stim2/pa+05.wav,5f2bffa8d4f0d601244ab240,2020-12-17_17h44.43.798,Spanish_step2,2020.2.3,MacIntel,60,,,,,,,,,,,,,,,,,right,0.86722,0,4,4,0,1,,,,,,,,,
,,,,,,,stim2/pa-15.wav,5f2bffa8d4f0d601244ab240,2020-12-17_17h44.43.798,Spanish_step2,2020.2.3,MacIntel,60,,,,,,,,,,,,,,,,,right,0.950325,0,5,5,12,1,,,,,,,,,
,,,,,,,stim2/pa+40.wav,5f2bffa8d4f0d601244ab240,2020-12-17_17h44.43.798,Spanish_step2,2020.2.3,MacIntel,60,,,,,,,,,,,,,,,,,left,0.750845,0,6,6,7,1,,,,,,,,,
,,,,,,,stim2/pa-20.wav,5f2bffa8d4f0d601244ab240,2020-12-17_17h44.43.798,Spanish_step2,2020.2.3,MacIntel,60,,,,,,,,,,,,,,,,,right,0.75226,0,7,7,13,1,,,,,,,,,
,,,,,,,stim2/pa-35.wav,5f2bffa8d4f0d601244ab240,2020-12-17_17h44.43.798,Spanish_step2,2020.2.3,MacIntel,60,,,,,,,,,,,,,,,,,right,0.63249,0,8,8,16,1,,,,,,,,,
,,,,,,,stim2/pa+45.wav,5f2bffa8d4f0d601244ab240,2020-12-17_17h44.43.798,Spanish_step2,2020.2.3,MacIntel,60,,,,,,,,,,,,,,,,,left,0.78651,0,9,9,8,1,,,,,,,,,
,,,,,,,stim2/pa+35.wav,5f2bffa8d4f0d601244ab240,2020-12-17_17h44.43.798,Spanish_step2,2020.2.3,MacIntel,60,,,,,,,,,,,,,,,,,right,0.817375,0,10,10,6,1,,,,,,,,,
,,,,,,,stim2/pa+10.wav,5f2bffa8d4f0d601244ab240,2020-12-17_17h44.43.798,Spanish_step2,2020.2.3,MacIntel,60,,,,,,,,,,,,,,,,,left,0.75234,0,11,11,1,1,,,,,,,,,
,,,,,,,stim2/pa-25.wav,5f2bffa8d4f0d601244ab240,2020-12-17_17h44.43.798,Spanish_step2,2020.2.3,MacIntel,60,,,,,,,,,,,,,,,,,left,1.216965,0,12,12,14,1,,,,,,,,,
,,,,,,,stim2/pa-10.wav,5f2bffa8d4f0d601244ab240,2020-12-17_17h44.43.798,Spanish_step2,2020.2.3,MacIntel,60,,,,,,,,,,,,,,,,,right,0.78387,0,13,13,11,1,,,,,,,,,
,,,,,,,stim2/pa+20.wav,5f2bffa8d4f0d601244ab240,2020-12-17_17h44.43.798,Spanish_step2,2020.2.3,MacIntel,60,,,,,,,,,,,,,,,,,left,0.55216,0,14,14,3,1,,,,,,,,,
,,,,,,,stim2/pa-05.wav,5f2bffa8d4f0d601244ab240,2020-12-17_17h44.43.798,Spanish_step2,2020.2.3,MacIntel,60,,,,,,,,,,,,,,,,,right,0.800005,0,15,15,10,1,,,,,,,,,
,,,,,,,stim2/pa+30.wav,5f2bffa8d4f0d601244ab240,2020-12-17_17h44.43.798,Spanish_step2,2020.2.3,MacIntel,60,,,,,,,,,,,,,,,,,left,0.786175,0,16,16,5,1,,,,,,,,,
,,,,,,,stim2/pa-35.wav,5f2bffa8d4f0d601244ab240,2020-12-17_17h44.43.798,Spanish_step2,2020.2.3,MacIntel,60,,,,,,,,,,,,,,,,,right,0.618995,1,0,17,16,1,,,,,,,,,
,,,,,,,stim2/pa-15.wav,5f2bffa8d4f0d601244ab240,2020-12-17_17h44.43.798,Spanish_step2,2020.2.3,MacIntel,60,,,,,,,,,,,,,,,,,right,0.57147,1,1,18,12,1,,,,,,,,,
,,,,,,,stim2/pa+15.wav,5f2bffa8d4f0d601244ab240,2020-12-17_17h44.43.798,Spanish_step2,2020.2.3,MacIntel,60,,,,,,,,,,,,,,,,,left,0.63518,1,2,19,2,1,,,,,,,,,
,,,,,,,stim2/pa-25.wav,5f2bffa8d4f0d601244ab240,2020-12-17_17h44.43.798,Spanish_step2,2020.2.3,MacIntel,60,,,,,,,,,,,,,,,,,right,0.93341,1,3,20,14,1,,,,,,,,,
,,,,,,,stim2/pa+05.wav,5f2bffa8d4f0d601244ab240,2020-12-17_17h44.43.798,Spanish_step2,2020.2.3,MacIntel,60,,,,,,,,,,,,,,,,,left,0.602355,1,4,21,0,1,,,,,,,,,
,,,,,,,stim2/pa+10.wav,5f2bffa8d4f0d601244ab240,2020-12-17_17h44.43.798,Spanish_step2,2020.2.3,MacIntel,60,,,,,,,,,,,,,,,,,left,1.00119,1,5,22,1,1,,,,,,,,,
,,,,,,,stim2/pa-05.wav,5f2bffa8d4f0d601244ab240,2020-12-17_17h44.43.798,Spanish_step2,2020.2.3,MacIntel,60,,,,,,,,,,,,,,,,,right,1.218525,1,6,23,10,1,,,,,,,,,
,,,,,,,stim2/pa+50.wav,5f2bffa8d4f0d601244ab240,2020-12-17_17h44.43.798,Spanish_step2,2020.2.3,MacIntel,60,,,,,,,,,,,,,,,,,left,0.751265,1,7,24,9,1,,,,,,,,,
,,,,,,,stim2/pa-10.wav,5f2bffa8d4f0d601244ab240,2020-12-17_17h44.43.798,Spanish_step2,2020.2.3,MacIntel,60,,,,,,,,,,,,,,,,,right,0.788445,1,8,25,11,1,,,,,,,,,
,,,,,,,stim2/pa+40.wav,5f2bffa8d4f0d601244ab240,2020-12-17_17h44.43.798,Spanish_step2,2020.2.3,MacIntel,60,,,,,,,,,,,,,,,,,left,0.57184,1,9,26,7,1,,,,,,,,,
,,,,,,,stim2/pa+30.wav,5f2bffa8d4f0d601244ab240,2020-12-17_17h44.43.798,Spanish_step2,2020.2.3,MacIntel,60,,,,,,,,,,,,,,,,,right,1.519565,1,10,27,5,1,,,,,,,,,
,,,,,,,stim2/pa-20.wav,5f2bffa8d4f0d601244ab240,2020-12-17_17h44.43.798,Spanish_step2,2020.2.3,MacIntel,60,,,,,,,,,,,,,,,,,right,0.549475,1,11,28,13,1,,,,,,,,,
,,,,,,,stim2/pa+25.wav,5f2bffa8d4f0d601244ab240,2020-12-17_17h44.43.798,Spanish_step2,2020.2.3,MacIntel,60,,,,,,,,,,,,,,,,,left,0.56615,1,12,29,4,1,,,,,,,,,
,,,,,,,stim2/pa+45.wav,5f2bffa8d4f0d601244ab240,2020-12-17_17h44.43.798,Spanish_step2,2020.2.3,MacIntel,60,,,,,,,,,,,,,,,,,right,0.9156,1,13,30,8,1,,,,,,,,,
,,,,,,,stim2/pa+35.wav,5f2bffa8d4f0d601244ab240,2020-12-17_17h44.43.798,Spanish_step2,2020.2.3,MacIntel,60,,,,,,,,,,,,,,,,,left,0.615735,1,14,31,6,1,,,,,,,,,
,,,,,,,stim2/pa+20.wav,5f2bffa8d4f0d601244ab240,2020-12-17_17h44.43.798,Spanish_step2,2020.2.3,MacIntel,60,,,,,,,,,,,,,,,,,right,0.986795,1,15,32,3,1,,,,,,,,,
,,,,,,,stim2/pa-30.wav,5f2bffa8d4f0d601244ab240,2020-12-17_17h44.43.798,Spanish_step2,2020.2.3,MacIntel,60,,,,,,,,,,,,,,,,,right,0.682815,1,16,33,15,1,,,,,,,,,
,,,,,,,stim2/pa-35.wav,5f2bffa8d4f0d601244ab240,2020-12-17_17h44.43.798,Spanish_step2,2020.2.3,MacIntel,60,,,,,,,,,,,,,,,,,right,0.583405,2,0,34,16,1,,,,,,,,,
,,,,,,,stim2/pa-30.wav,5f2bffa8d4f0d601244ab240,2020-12-17_17h44.43.798,Spanish_step2,2020.2.3,MacIntel,60,,,,,,,,,,,,,,,,,right,0.5839,2,1,35,15,1,,,,,,,,,
,,,,,,,stim2/pa+50.wav,5f2bffa8d4f0d601244ab240,2020-12-17_17h44.43.798,Spanish_step2,2020.2.3,MacIntel,60,,,,,,,,,,,,,,,,,right,0.90089,2,2,36,9,1,,,,,,,,,
,,,,,,,stim2/pa+15.wav,5f2bffa8d4f0d601244ab240,2020-12-17_17h44.43.798,Spanish_step2,2020.2.3,MacIntel,60,,,,,,,,,,,,,,,,,left,0.817325,2,3,37,2,1,,,,,,,,,
,,,,,,,stim2/pa+10.wav,5f2bffa8d4f0d601244ab240,2020-12-17_17h44.43.798,Spanish_step2,2020.2.3,MacIntel,60,,,,,,,,,,,,,,,,,left,0.71727,2,4,38,1,1,,,,,,,,,
,,,,,,,stim2/pa+35.wav,5f2bffa8d4f0d601244ab240,2020-12-17_17h44.43.798,Spanish_step2,2020.2.3,MacIntel,60,,,,,,,,,,,,,,,,,left,1.33581,2,5,39,6,1,,,,,,,,,
,,,,,,,stim2/pa+20.wav,5f2bffa8d4f0d601244ab240,2020-12-17_17h44.43.798,Spanish_step2,2020.2.3,MacIntel,60,,,,,,,,,,,,,,,,,left,0.61978,2,6,40,3,1,,,,,,,,,
,,,,,,,stim2/pa-15.wav,5f2bffa8d4f0d601244ab240,2020-12-17_17h44.43.798,Spanish_step2,2020.2.3,MacIntel,60,,,,,,,,,,,,,,,,,right,0.600595,2,7,41,12,1,,,,,,,,,
,,,,,,,stim2/pa+30.wav,5f2bffa8d4f0d601244ab240,2020-12-17_17h44.43.798,Spanish_step2,2020.2.3,MacIntel,60,,,,,,,,,,,,,,,,,right,0.649375,2,8,42,5,1,,,,,,,,,
,,,,,,,stim2/pa-20.wav,5f2bffa8d4f0d601244ab240,2020-12-17_17h44.43.798,Spanish_step2,2020.2.3,MacIntel,60,,,,,,,,,,,,,,,,,right,0.667235,2,9,43,13,1,,,,,,,,,
,,,,,,,stim2/pa-05.wav,5f2bffa8d4f0d601244ab240,2020-12-17_17h44.43.798,Spanish_step2,2020.2.3,MacIntel,60,,,,,,,,,,,,,,,,,right,0.587025,2,10,44,10,1,,,,,,,,,
,,,,,,,stim2/pa+45.wav,5f2bffa8d4f0d601244ab240,2020-12-17_17h44.43.798,Spanish_step2,2020.2.3,MacIntel,60,,,,,,,,,,,,,,,,,right,0.88609,2,11,45,8,1,,,,,,,,,
,,,,,,,stim2/pa+05.wav,5f2bffa8d4f0d601244ab240,2020-12-17_17h44.43.798,Spanish_step2,2020.2.3,MacIntel,60,,,,,,,,,,,,,,,,,right,0.7864,2,12,46,0,1,,,,,,,,,
,,,,,,,stim2/pa-25.wav,5f2bffa8d4f0d601244ab240,2020-12-17_17h44.43.798,Spanish_step2,2020.2.3,MacIntel,60,,,,,,,,,,,,,,,,,right,1.252365,2,13,47,14,1,,,,,,,,,
,,,,,,,stim2/pa-10.wav,5f2bffa8d4f0d601244ab240,2020-12-17_17h44.43.798,Spanish_step2,2020.2.3,MacIntel,60,,,,,,,,,,,,,,,,,right,0.98314,2,14,48,11,1,,,,,,,,,
,,,,,,,stim2/pa+25.wav,5f2bffa8d4f0d601244ab240,2020-12-17_17h44.43.798,Spanish_step2,2020.2.3,MacIntel,60,,,,,,,,,,,,,,,,,right,1.56693,2,15,49,4,1,,,,,,,,,
,,,,,,,stim2/pa+40.wav,5f2bffa8d4f0d601244ab240,2020-12-17_17h44.43.798,Spanish_step2,2020.2.3,MacIntel,60,,,,,,,,,,,,,,,,,left,0.58385,2,16,50,7,1,,,,,,,,,
,,,,,,,stim2/pa+10.wav,5f2bffa8d4f0d601244ab240,2020-12-17_17h44.43.798,Spanish_step2,2020.2.3,MacIntel,60,,,,,,,,,,,,,,,,,left,1.137535,,,,,,z,13.315265,0,0,0,1,1,,
,,,,,,,stim2/pa-15.wav,5f2bffa8d4f0d601244ab240,2020-12-17_17h44.43.798,Spanish_step2,2020.2.3,MacIntel,60,,,,,,,,,,,,,,,,,right,0.732575,,,,,,,,0,1,1,12,1,,
,,,,,,,stim2/pa+25.wav,5f2bffa8d4f0d601244ab240,2020-12-17_17h44.43.798,Spanish_step2,2020.2.3,MacIntel,60,,,,,,,,,,,,,,,,,left,0.76567,,,,,,,,0,2,2,4,1,,
,,,,,,,stim2/pa-20.wav,5f2bffa8d4f0d601244ab240,2020-12-17_17h44.43.798,Spanish_step2,2020.2.3,MacIntel,60,,,,,,,,,,,,,,,,,right,4.10418,,,,,,,,0,3,3,13,1,,
,,,,,,,stim2/pa+50.wav,5f2bffa8d4f0d601244ab240,2020-12-17_17h44.43.798,Spanish_step2,2020.2.3,MacIntel,60,,,,,,,,,,,,,,,,,left,0.818875,,,,,,,,0,4,4,9,1,,
,,,,,,,stim2/pa+35.wav,5f2bffa8d4f0d601244ab240,2020-12-17_17h44.43.798,Spanish_step2,2020.2.3,MacIntel,60,,,,,,,,,,,,,,,,,right,0.65097,,,,,,,,0,5,5,6,1,,
,,,,,,,stim2/pa-35.wav,5f2bffa8d4f0d601244ab240,2020-12-17_17h44.43.798,Spanish_step2,2020.2.3,MacIntel,60,,,,,,,,,,,,,,,,,right,0.750125,,,,,,,,0,6,6,16,1,,
,,,,,,,stim2/pa+15.wav,5f2bffa8d4f0d601244ab240,2020-12-17_17h44.43.798,Spanish_step2,2020.2.3,MacIntel,60,,,,,,,,,,,,,,,,,left,0.732425,,,,,,,,0,7,7,2,1,,
,,,,,,,stim2/pa-05.wav,5f2bffa8d4f0d601244ab240,2020-12-17_17h44.43.798,Spanish_step2,2020.2.3,MacIntel,60,,,,,,,,,,,,,,,,,right,0.68477,,,,,,,,0,8,8,10,1,,
,,,,,,,stim2/pa+30.wav,5f2bffa8d4f0d601244ab240,2020-12-17_17h44.43.798,Spanish_step2,2020.2.3,MacIntel,60,,,,,,,,,,,,,,,,,right,0.61758,,,,,,,,0,9,9,5,1,,
,,,,,,,stim2/pa+45.wav,5f2bffa8d4f0d601244ab240,2020-12-17_17h44.43.798,Spanish_step2,2020.2.3,MacIntel,60,,,,,,,,,,,,,,,,,right,0.70238,,,,,,,,0,10,10,8,1,,
,,,,,,,stim2/pa+20.wav,5f2bffa8d4f0d601244ab240,2020-12-17_17h44.43.798,Spanish_step2,2020.2.3,MacIntel,60,,,,,,,,,,,,,,,,,left,0.701345,,,,,,,,0,11,11,3,1,,
,,,,,,,stim2/pa-30.wav,5f2bffa8d4f0d601244ab240,2020-12-17_17h44.43.798,Spanish_step2,2020.2.3,MacIntel,60,,,,,,,,,,,,,,,,,right,0.616935,,,,,,,,0,12,12,15,1,,
,,,,,,,stim2/pa-25.wav,5f2bffa8d4f0d601244ab240,2020-12-17_17h44.43.798,Spanish_step2,2020.2.3,MacIntel,60,,,,,,,,,,,,,,,,,right,0.619605,,,,,,,,0,13,13,14,1,,
,,,,,,,stim2/pa+05.wav,5f2bffa8d4f0d601244ab240,2020-12-17_17h44.43.798,Spanish_step2,2020.2.3,MacIntel,60,,,,,,,,,,,,,,,,,right,0.7338,,,,,,,,0,14,14,0,1,,
,,,,,,,stim2/pa-10.wav,5f2bffa8d4f0d601244ab240,2020-12-17_17h44.43.798,Spanish_step2,2020.2.3,MacIntel,60,,,,,,,,,,,,,,,,,right,0.85078,,,,,,,,0,15,15,11,1,,
,,,,,,,stim2/pa+40.wav,5f2bffa8d4f0d601244ab240,2020-12-17_17h44.43.798,Spanish_step2,2020.2.3,MacIntel,60,,,,,,,,,,,,,,,,,left,0.61757,,,,,,,,0,16,16,7,1,,
,,,,,,,stim2/pa+20.wav,5f2bffa8d4f0d601244ab240,2020-12-17_17h44.43.798,Spanish_step2,2020.2.3,MacIntel,60,,,,,,,,,,,,,,,,,left,0.71577,,,,,,,,1,0,17,3,1,,
,,,,,,,stim2/pa+50.wav,5f2bffa8d4f0d601244ab240,2020-12-17_17h44.43.798,Spanish_step2,2020.2.3,MacIntel,60,,,,,,,,,,,,,,,,,left,0.78433,,,,,,,,1,1,18,9,1,,
,,,,,,,stim2/pa+40.wav,5f2bffa8d4f0d601244ab240,2020-12-17_17h44.43.798,Spanish_step2,2020.2.3,MacIntel,60,,,,,,,,,,,,,,,,,right,0.9344,,,,,,,,1,2,19,7,1,,
,,,,,,,stim2/pa-05.wav,5f2bffa8d4f0d601244ab240,2020-12-17_17h44.43.798,Spanish_step2,2020.2.3,MacIntel,60,,,,,,,,,,,,,,,,,right,0.56792,,,,,,,,1,3,20,10,1,,
,,,,,,,stim2/pa-20.wav,5f2bffa8d4f0d601244ab240,2020-12-17_17h44.43.798,Spanish_step2,2020.2.3,MacIntel,60,,,,,,,,,,,,,,,,,right,0.41756,,,,,,,,1,4,21,13,1,,
,,,,,,,stim2/pa-30.wav,5f2bffa8d4f0d601244ab240,2020-12-17_17h44.43.798,Spanish_step2,2020.2.3,MacIntel,60,,,,,,,,,,,,,,,,,right,0.75077,,,,,,,,1,5,22,15,1,,
,,,,,,,stim2/pa+35.wav,5f2bffa8d4f0d601244ab240,2020-12-17_17h44.43.798,Spanish_step2,2020.2.3,MacIntel,60,,,,,,,,,,,,,,,,,right,1.05347,,,,,,,,1,6,23,6,1,,
,,,,,,,stim2/pa+45.wav,5f2bffa8d4f0d601244ab240,2020-12-17_17h44.43.798,Spanish_step2,2020.2.3,MacIntel,60,,,,,,,,,,,,,,,,,left,0.59835,,,,,,,,1,7,24,8,1,,
,,,,,,,stim2/pa+10.wav,5f2bffa8d4f0d601244ab240,2020-12-17_17h44.43.798,Spanish_step2,2020.2.3,MacIntel,60,,,,,,,,,,,,,,,,,right,0.60187,,,,,,,,1,8,25,1,1,,
,,,,,,,stim2/pa+05.wav,5f2bffa8d4f0d601244ab240,2020-12-17_17h44.43.798,Spanish_step2,2020.2.3,MacIntel,60,,,,,,,,,,,,,,,,,left,1.167615,,,,,,,,1,9,26,0,1,,
,,,,,,,stim2/pa-35.wav,5f2bffa8d4f0d601244ab240,2020-12-17_17h44.43.798,Spanish_step2,2020.2.3,MacIntel,60,,,,,,,,,,,,,,,,,right,0.700625,,,,,,,,1,10,27,16,1,,
,,,,,,,stim2/pa+25.wav,5f2bffa8d4f0d601244ab240,2020-12-17_17h44.43.798,Spanish_step2,2020.2.3,MacIntel,60,,,,,,,,,,,,,,,,,left,0.667255,,,,,,,,1,11,28,4,1,,
,,,,,,,stim2/pa-10.wav,5f2bffa8d4f0d601244ab240,2020-12-17_17h44.43.798,Spanish_step2,2020.2.3,MacIntel,60,,,,,,,,,,,,,,,,,right,0.533865,,,,,,,,1,12,29,11,1,,
,,,,,,,stim2/pa-25.wav,5f2bffa8d4f0d601244ab240,2020-12-17_17h44.43.798,Spanish_step2,2020.2.3,MacIntel,60,,,,,,,,,,,,,,,,,right,1.00113,,,,,,,,1,13,30,14,1,,
,,,,,,,stim2/pa+30.wav,5f2bffa8d4f0d601244ab240,2020-12-17_17h44.43.798,Spanish_step2,2020.2.3,MacIntel,60,,,,,,,,,,,,,,,,,right,0.87071,,,,,,,,1,14,31,5,1,,
,,,,,,,stim2/pa-15.wav,5f2bffa8d4f0d601244ab240,2020-12-17_17h44.43.798,Spanish_step2,2020.2.3,MacIntel,60,,,,,,,,,,,,,,,,,right,0.58356,,,,,,,,1,15,32,12,1,,
,,,,,,,stim2/pa+15.wav,5f2bffa8d4f0d601244ab240,2020-12-17_17h44.43.798,Spanish_step2,2020.2.3,MacIntel,60,,,,,,,,,,,,,,,,,right,0.68661,,,,,,,,1,16,33,2,1,,
,,,,,,,,5f2bffa8d4f0d601244ab240,2020-12-17_17h44.43.798,Spanish_step2,2020.2.3,MacIntel,60,,,,,,,,,,,,,,,,,,,,,,,,,,,,,,,space,3.398695
