resp.keys,resp.rt,trials.thisRepN,trials.thisTrialN,trials.thisN,trials.thisIndex,trials.ran,stimuli,participant,date,expName,psychopyVersion,OS,frameRate,gotResponse.keys,gotResponse.rt,resp_2.keys,resp_2.rt,trials_2.thisRepN,trials_2.thisTrialN,trials_2.thisN,trials_2.thisIndex,trials_2.ran,key_resp_3.keys,key_resp_3.corr,key_resp_3.rt,trials_4.thisRepN,trials_4.thisTrialN,trials_4.thisN,trials_4.thisIndex,trials_4.ran,resp_3.keys,resp_3.rt,trials_3.thisRepN,trials_3.thisTrialN,trials_3.thisN,trials_3.thisIndex,trials_3.ran,key_resp_2.keys,key_resp_2.rt,trials_5.thisRepN,trials_5.thisTrialN,trials_5.thisN,trials_5.thisIndex,trials_5.ran,key_resp.keys,key_resp.rt
left,2.639,0,0,0,0,1,stim/VC_01.wav,5f67c61d4084d6407fb4a346,2021-01-19_22h14.05.496,English_step1,2020.2.3,Win32,60,,,,,,,,,,,,,,,,,,,,,,,,,,,,,,,,,
right,1.994,0,1,1,1,1,stim/VC_11.wav,5f67c61d4084d6407fb4a346,2021-01-19_22h14.05.496,English_step1,2020.2.3,Win32,60,,,,,,,,,,,,,,,,,,,,,,,,,,,,,,,,,
,,,,,,,stim/VC_06.wav,5f67c61d4084d6407fb4a346,2021-01-19_22h14.05.496,English_step1,2020.2.3,Win32,60,space,4.356,right,1.914,0,0,0,5,1,,,,,,,,,,,,,,,,,,,,,,,,
,,,,,,,stim/VC_05.wav,5f67c61d4084d6407fb4a346,2021-01-19_22h14.05.496,English_step1,2020.2.3,Win32,60,,,right,1.946,0,1,1,4,1,,,,,,,,,,,,,,,,,,,,,,,,
,,,,,,,stim/VC_04.wav,5f67c61d4084d6407fb4a346,2021-01-19_22h14.05.496,English_step1,2020.2.3,Win32,60,,,left,1.929,0,2,2,3,1,,,,,,,,,,,,,,,,,,,,,,,,
,,,,,,,stim/VC_07.wav,5f67c61d4084d6407fb4a346,2021-01-19_22h14.05.496,English_step1,2020.2.3,Win32,60,,,right,0.99,0,3,3,6,1,,,,,,,,,,,,,,,,,,,,,,,,
,,,,,,,stim/VC_03.wav,5f67c61d4084d6407fb4a346,2021-01-19_22h14.05.496,English_step1,2020.2.3,Win32,60,,,left,1.358,0,4,4,2,1,,,,,,,,,,,,,,,,,,,,,,,,
,,,,,,,stim/VC_09.wav,5f67c61d4084d6407fb4a346,2021-01-19_22h14.05.496,English_step1,2020.2.3,Win32,60,,,right,0.999,0,5,5,8,1,,,,,,,,,,,,,,,,,,,,,,,,
,,,,,,,stim/VC_08.wav,5f67c61d4084d6407fb4a346,2021-01-19_22h14.05.496,English_step1,2020.2.3,Win32,60,,,right,2.084,0,6,6,7,1,,,,,,,,,,,,,,,,,,,,,,,,
,,,,,,,stim/VC_01.wav,5f67c61d4084d6407fb4a346,2021-01-19_22h14.05.496,English_step1,2020.2.3,Win32,60,,,left,1.535,0,7,7,0,1,,,,,,,,,,,,,,,,,,,,,,,,
,,,,,,,stim/VC_10.wav,5f67c61d4084d6407fb4a346,2021-01-19_22h14.05.496,English_step1,2020.2.3,Win32,60,,,right,0.84,0,8,8,9,1,,,,,,,,,,,,,,,,,,,,,,,,
,,,,,,,stim/VC_02.wav,5f67c61d4084d6407fb4a346,2021-01-19_22h14.05.496,English_step1,2020.2.3,Win32,60,,,left,1.063,0,9,9,1,1,,,,,,,,,,,,,,,,,,,,,,,,
,,,,,,,stim/VC_11.wav,5f67c61d4084d6407fb4a346,2021-01-19_22h14.05.496,English_step1,2020.2.3,Win32,60,,,right,0.744,0,10,10,10,1,,,,,,,,,,,,,,,,,,,,,,,,
,,,,,,,stim/VC_08.wav,5f67c61d4084d6407fb4a346,2021-01-19_22h14.05.496,English_step1,2020.2.3,Win32,60,,,right,1.749,1,0,11,7,1,,,,,,,,,,,,,,,,,,,,,,,,
,,,,,,,stim/VC_05.wav,5f67c61d4084d6407fb4a346,2021-01-19_22h14.05.496,English_step1,2020.2.3,Win32,60,,,left,1.278,1,1,12,4,1,,,,,,,,,,,,,,,,,,,,,,,,
,,,,,,,stim/VC_04.wav,5f67c61d4084d6407fb4a346,2021-01-19_22h14.05.496,English_step1,2020.2.3,Win32,60,,,left,1.164,1,2,13,3,1,,,,,,,,,,,,,,,,,,,,,,,,
,,,,,,,stim/VC_03.wav,5f67c61d4084d6407fb4a346,2021-01-19_22h14.05.496,English_step1,2020.2.3,Win32,60,,,left,1.598,1,3,14,2,1,,,,,,,,,,,,,,,,,,,,,,,,
,,,,,,,stim/VC_10.wav,5f67c61d4084d6407fb4a346,2021-01-19_22h14.05.496,English_step1,2020.2.3,Win32,60,,,right,0.827,1,4,15,9,1,,,,,,,,,,,,,,,,,,,,,,,,
,,,,,,,stim/VC_07.wav,5f67c61d4084d6407fb4a346,2021-01-19_22h14.05.496,English_step1,2020.2.3,Win32,60,,,right,1.613,1,5,16,6,1,,,,,,,,,,,,,,,,,,,,,,,,
,,,,,,,stim/VC_11.wav,5f67c61d4084d6407fb4a346,2021-01-19_22h14.05.496,English_step1,2020.2.3,Win32,60,,,right,2.905,1,6,17,10,1,,,,,,,,,,,,,,,,,,,,,,,,
,,,,,,,stim/VC_06.wav,5f67c61d4084d6407fb4a346,2021-01-19_22h14.05.496,English_step1,2020.2.3,Win32,60,,,left,0.843,1,7,18,5,1,,,,,,,,,,,,,,,,,,,,,,,,
,,,,,,,stim/VC_09.wav,5f67c61d4084d6407fb4a346,2021-01-19_22h14.05.496,English_step1,2020.2.3,Win32,60,,,right,1.125,1,8,19,8,1,,,,,,,,,,,,,,,,,,,,,,,,
,,,,,,,stim/VC_01.wav,5f67c61d4084d6407fb4a346,2021-01-19_22h14.05.496,English_step1,2020.2.3,Win32,60,,,left,1.349,1,9,20,0,1,,,,,,,,,,,,,,,,,,,,,,,,
,,,,,,,stim/VC_02.wav,5f67c61d4084d6407fb4a346,2021-01-19_22h14.05.496,English_step1,2020.2.3,Win32,60,,,left,1.059,1,10,21,1,1,,,,,,,,,,,,,,,,,,,,,,,,
,,,,,,,stim/VC_06.wav,5f67c61d4084d6407fb4a346,2021-01-19_22h14.05.496,English_step1,2020.2.3,Win32,60,,,right,0.926,2,0,22,5,1,,,,,,,,,,,,,,,,,,,,,,,,
,,,,,,,stim/VC_01.wav,5f67c61d4084d6407fb4a346,2021-01-19_22h14.05.496,English_step1,2020.2.3,Win32,60,,,left,0.812,2,1,23,0,1,,,,,,,,,,,,,,,,,,,,,,,,
,,,,,,,stim/VC_08.wav,5f67c61d4084d6407fb4a346,2021-01-19_22h14.05.496,English_step1,2020.2.3,Win32,60,,,right,0.828,2,2,24,7,1,,,,,,,,,,,,,,,,,,,,,,,,
,,,,,,,stim/VC_05.wav,5f67c61d4084d6407fb4a346,2021-01-19_22h14.05.496,English_step1,2020.2.3,Win32,60,,,left,1.765,2,3,25,4,1,,,,,,,,,,,,,,,,,,,,,,,,
,,,,,,,stim/VC_09.wav,5f67c61d4084d6407fb4a346,2021-01-19_22h14.05.496,English_step1,2020.2.3,Win32,60,,,right,0.978,2,4,26,8,1,,,,,,,,,,,,,,,,,,,,,,,,
,,,,,,,stim/VC_11.wav,5f67c61d4084d6407fb4a346,2021-01-19_22h14.05.496,English_step1,2020.2.3,Win32,60,,,right,2.35,2,5,27,10,1,,,,,,,,,,,,,,,,,,,,,,,,
,,,,,,,stim/VC_10.wav,5f67c61d4084d6407fb4a346,2021-01-19_22h14.05.496,English_step1,2020.2.3,Win32,60,,,right,0.877,2,6,28,9,1,,,,,,,,,,,,,,,,,,,,,,,,
,,,,,,,stim/VC_03.wav,5f67c61d4084d6407fb4a346,2021-01-19_22h14.05.496,English_step1,2020.2.3,Win32,60,,,left,0.693,2,7,29,2,1,,,,,,,,,,,,,,,,,,,,,,,,
,,,,,,,stim/VC_04.wav,5f67c61d4084d6407fb4a346,2021-01-19_22h14.05.496,English_step1,2020.2.3,Win32,60,,,left,0.743,2,8,30,3,1,,,,,,,,,,,,,,,,,,,,,,,,
,,,,,,,stim/VC_07.wav,5f67c61d4084d6407fb4a346,2021-01-19_22h14.05.496,English_step1,2020.2.3,Win32,60,,,left,1.178,2,9,31,6,1,,,,,,,,,,,,,,,,,,,,,,,,
,,,,,,,stim/VC_02.wav,5f67c61d4084d6407fb4a346,2021-01-19_22h14.05.496,English_step1,2020.2.3,Win32,60,,,left,1.852,2,10,32,1,1,,,,,,,,,,,,,,,,,,,,,,,,
,,,,,,,stim/VC_09.wav,5f67c61d4084d6407fb4a346,2021-01-19_22h14.05.496,English_step1,2020.2.3,Win32,60,,,right,1.747,,,,,,4,0,17.311,0,0,0,8,1,,,,,,,,,,,,,,,,
,,,,,,,stim/VC_03.wav,5f67c61d4084d6407fb4a346,2021-01-19_22h14.05.496,English_step1,2020.2.3,Win32,60,,,left,0.943,,,,,,,,,0,1,1,2,1,,,,,,,,,,,,,,,,
,,,,,,,stim/VC_10.wav,5f67c61d4084d6407fb4a346,2021-01-19_22h14.05.496,English_step1,2020.2.3,Win32,60,,,right,1.396,,,,,,,,,0,2,2,9,1,,,,,,,,,,,,,,,,
,,,,,,,stim/VC_07.wav,5f67c61d4084d6407fb4a346,2021-01-19_22h14.05.496,English_step1,2020.2.3,Win32,60,,,left,1.014,,,,,,,,,0,3,3,6,1,,,,,,,,,,,,,,,,
,,,,,,,stim/VC_02.wav,5f67c61d4084d6407fb4a346,2021-01-19_22h14.05.496,English_step1,2020.2.3,Win32,60,,,left,2.082,,,,,,,,,0,4,4,1,1,,,,,,,,,,,,,,,,
,,,,,,,stim/VC_08.wav,5f67c61d4084d6407fb4a346,2021-01-19_22h14.05.496,English_step1,2020.2.3,Win32,60,,,right,1.164,,,,,,,,,0,5,5,7,1,,,,,,,,,,,,,,,,
,,,,,,,stim/VC_06.wav,5f67c61d4084d6407fb4a346,2021-01-19_22h14.05.496,English_step1,2020.2.3,Win32,60,,,left,1.229,,,,,,,,,0,6,6,5,1,,,,,,,,,,,,,,,,
,,,,,,,stim/VC_01.wav,5f67c61d4084d6407fb4a346,2021-01-19_22h14.05.496,English_step1,2020.2.3,Win32,60,,,left,1.279,,,,,,,,,0,7,7,0,1,,,,,,,,,,,,,,,,
,,,,,,,stim/VC_05.wav,5f67c61d4084d6407fb4a346,2021-01-19_22h14.05.496,English_step1,2020.2.3,Win32,60,,,left,1.445,,,,,,,,,0,8,8,4,1,,,,,,,,,,,,,,,,
,,,,,,,stim/VC_11.wav,5f67c61d4084d6407fb4a346,2021-01-19_22h14.05.496,English_step1,2020.2.3,Win32,60,,,right,0.765,,,,,,,,,0,9,9,10,1,,,,,,,,,,,,,,,,
,,,,,,,stim/VC_04.wav,5f67c61d4084d6407fb4a346,2021-01-19_22h14.05.496,English_step1,2020.2.3,Win32,60,,,left,0.977,,,,,,,,,0,10,10,3,1,,,,,,,,,,,,,,,,
,,,,,,,stim/VC_10.wav,5f67c61d4084d6407fb4a346,2021-01-19_22h14.05.496,English_step1,2020.2.3,Win32,60,,,right,0.643,,,,,,,,,1,0,11,9,1,,,,,,,,,,,,,,,,
,,,,,,,stim/VC_08.wav,5f67c61d4084d6407fb4a346,2021-01-19_22h14.05.496,English_step1,2020.2.3,Win32,60,,,right,1.278,,,,,,,,,1,1,12,7,1,,,,,,,,,,,,,,,,
,,,,,,,stim/VC_11.wav,5f67c61d4084d6407fb4a346,2021-01-19_22h14.05.496,English_step1,2020.2.3,Win32,60,,,right,0.76,,,,,,,,,1,2,13,10,1,,,,,,,,,,,,,,,,
,,,,,,,stim/VC_05.wav,5f67c61d4084d6407fb4a346,2021-01-19_22h14.05.496,English_step1,2020.2.3,Win32,60,,,left,1.732,,,,,,,,,1,3,14,4,1,,,,,,,,,,,,,,,,
,,,,,,,stim/VC_09.wav,5f67c61d4084d6407fb4a346,2021-01-19_22h14.05.496,English_step1,2020.2.3,Win32,60,,,right,0.832,,,,,,,,,1,4,15,8,1,,,,,,,,,,,,,,,,
,,,,,,,stim/VC_04.wav,5f67c61d4084d6407fb4a346,2021-01-19_22h14.05.496,English_step1,2020.2.3,Win32,60,,,left,1.11,,,,,,,,,1,5,16,3,1,,,,,,,,,,,,,,,,
,,,,,,,stim/VC_07.wav,5f67c61d4084d6407fb4a346,2021-01-19_22h14.05.496,English_step1,2020.2.3,Win32,60,,,right,0.709,,,,,,,,,1,6,17,6,1,,,,,,,,,,,,,,,,
,,,,,,,stim/VC_06.wav,5f67c61d4084d6407fb4a346,2021-01-19_22h14.05.496,English_step1,2020.2.3,Win32,60,,,left,1.344,,,,,,,,,1,7,18,5,1,,,,,,,,,,,,,,,,
,,,,,,,stim/VC_03.wav,5f67c61d4084d6407fb4a346,2021-01-19_22h14.05.496,English_step1,2020.2.3,Win32,60,,,left,1.429,,,,,,,,,1,8,19,2,1,,,,,,,,,,,,,,,,
,,,,,,,stim/VC_02.wav,5f67c61d4084d6407fb4a346,2021-01-19_22h14.05.496,English_step1,2020.2.3,Win32,60,,,left,0.881,,,,,,,,,1,9,20,1,1,,,,,,,,,,,,,,,,
,,,,,,,stim/VC_01.wav,5f67c61d4084d6407fb4a346,2021-01-19_22h14.05.496,English_step1,2020.2.3,Win32,60,,,left,1.328,,,,,,,,,1,10,21,0,1,,,,,,,,,,,,,,,,
,,,,,,,stim2/pa+25.wav,5f67c61d4084d6407fb4a346,2021-01-19_22h14.05.496,English_step1,2020.2.3,Win32,60,,,,,,,,,,,,,,,,,,left,1.956,0,0,0,4,1,,,,,,,,,
,,,,,,,stim2/pa+50.wav,5f67c61d4084d6407fb4a346,2021-01-19_22h14.05.496,English_step1,2020.2.3,Win32,60,,,,,,,,,,,,,,,,,,left,2.616,0,1,1,9,1,,,,,,,,,
,,,,,,,stim2/pa+15.wav,5f67c61d4084d6407fb4a346,2021-01-19_22h14.05.496,English_step1,2020.2.3,Win32,60,,,,,,,,,,,,,,,,,,right,2.449,0,2,2,2,1,,,,,,,,,
,,,,,,,stim2/pa-20.wav,5f67c61d4084d6407fb4a346,2021-01-19_22h14.05.496,English_step1,2020.2.3,Win32,60,,,,,,,,,,,,,,,,,,right,1.58,0,3,3,13,1,,,,,,,,,
,,,,,,,stim2/pa-25.wav,5f67c61d4084d6407fb4a346,2021-01-19_22h14.05.496,English_step1,2020.2.3,Win32,60,,,,,,,,,,,,,,,,,,right,1.163,0,4,4,14,1,,,,,,,,,
,,,,,,,stim2/pa+20.wav,5f67c61d4084d6407fb4a346,2021-01-19_22h14.05.496,English_step1,2020.2.3,Win32,60,,,,,,,,,,,,,,,,,,left,0.976,0,5,5,3,1,,,,,,,,,
,,,,,,,stim2/pa-05.wav,5f67c61d4084d6407fb4a346,2021-01-19_22h14.05.496,English_step1,2020.2.3,Win32,60,,,,,,,,,,,,,,,,,,left,0.781,0,6,6,10,1,,,,,,,,,
,,,,,,,stim2/pa+35.wav,5f67c61d4084d6407fb4a346,2021-01-19_22h14.05.496,English_step1,2020.2.3,Win32,60,,,,,,,,,,,,,,,,,,right,0.948,0,7,7,6,1,,,,,,,,,
,,,,,,,stim2/pa-35.wav,5f67c61d4084d6407fb4a346,2021-01-19_22h14.05.496,English_step1,2020.2.3,Win32,60,,,,,,,,,,,,,,,,,,right,0.826,0,8,8,16,1,,,,,,,,,
,,,,,,,stim2/pa-10.wav,5f67c61d4084d6407fb4a346,2021-01-19_22h14.05.496,English_step1,2020.2.3,Win32,60,,,,,,,,,,,,,,,,,,left,0.647,0,9,9,11,1,,,,,,,,,
,,,,,,,stim2/pa+45.wav,5f67c61d4084d6407fb4a346,2021-01-19_22h14.05.496,English_step1,2020.2.3,Win32,60,,,,,,,,,,,,,,,,,,left,0.743,0,10,10,8,1,,,,,,,,,
,,,,,,,stim2/pa+30.wav,5f67c61d4084d6407fb4a346,2021-01-19_22h14.05.496,English_step1,2020.2.3,Win32,60,,,,,,,,,,,,,,,,,,right,0.69,0,11,11,5,1,,,,,,,,,
,,,,,,,stim2/pa-15.wav,5f67c61d4084d6407fb4a346,2021-01-19_22h14.05.496,English_step1,2020.2.3,Win32,60,,,,,,,,,,,,,,,,,,right,0.579,0,12,12,12,1,,,,,,,,,
,,,,,,,stim2/pa+40.wav,5f67c61d4084d6407fb4a346,2021-01-19_22h14.05.496,English_step1,2020.2.3,Win32,60,,,,,,,,,,,,,,,,,,left,0.641,0,13,13,7,1,,,,,,,,,
,,,,,,,stim2/pa-30.wav,5f67c61d4084d6407fb4a346,2021-01-19_22h14.05.496,English_step1,2020.2.3,Win32,60,,,,,,,,,,,,,,,,,,right,0.575,0,14,14,15,1,,,,,,,,,
,,,,,,,stim2/pa+10.wav,5f67c61d4084d6407fb4a346,2021-01-19_22h14.05.496,English_step1,2020.2.3,Win32,60,,,,,,,,,,,,,,,,,,left,0.511,0,15,15,1,1,,,,,,,,,
,,,,,,,stim2/pa+05.wav,5f67c61d4084d6407fb4a346,2021-01-19_22h14.05.496,English_step1,2020.2.3,Win32,60,,,,,,,,,,,,,,,,,,left,1.345,0,16,16,0,1,,,,,,,,,
,,,,,,,stim2/pa+35.wav,5f67c61d4084d6407fb4a346,2021-01-19_22h14.05.496,English_step1,2020.2.3,Win32,60,,,,,,,,,,,,,,,,,,right,0.726,1,0,17,6,1,,,,,,,,,
,,,,,,,stim2/pa-35.wav,5f67c61d4084d6407fb4a346,2021-01-19_22h14.05.496,English_step1,2020.2.3,Win32,60,,,,,,,,,,,,,,,,,,right,0.627,1,1,18,16,1,,,,,,,,,
,,,,,,,stim2/pa+50.wav,5f67c61d4084d6407fb4a346,2021-01-19_22h14.05.496,English_step1,2020.2.3,Win32,60,,,,,,,,,,,,,,,,,,left,1.178,1,2,19,9,1,,,,,,,,,
,,,,,,,stim2/pa-20.wav,5f67c61d4084d6407fb4a346,2021-01-19_22h14.05.496,English_step1,2020.2.3,Win32,60,,,,,,,,,,,,,,,,,,right,0.607,1,3,20,13,1,,,,,,,,,
,,,,,,,stim2/pa+40.wav,5f67c61d4084d6407fb4a346,2021-01-19_22h14.05.496,English_step1,2020.2.3,Win32,60,,,,,,,,,,,,,,,,,,left,0.858,1,4,21,7,1,,,,,,,,,
,,,,,,,stim2/pa+45.wav,5f67c61d4084d6407fb4a346,2021-01-19_22h14.05.496,English_step1,2020.2.3,Win32,60,,,,,,,,,,,,,,,,,,right,0.593,1,5,22,8,1,,,,,,,,,
,,,,,,,stim2/pa+15.wav,5f67c61d4084d6407fb4a346,2021-01-19_22h14.05.496,English_step1,2020.2.3,Win32,60,,,,,,,,,,,,,,,,,,right,0.511,1,6,23,2,1,,,,,,,,,
,,,,,,,stim2/pa+25.wav,5f67c61d4084d6407fb4a346,2021-01-19_22h14.05.496,English_step1,2020.2.3,Win32,60,,,,,,,,,,,,,,,,,,right,0.591,1,7,24,4,1,,,,,,,,,
,,,,,,,stim2/pa+20.wav,5f67c61d4084d6407fb4a346,2021-01-19_22h14.05.496,English_step1,2020.2.3,Win32,60,,,,,,,,,,,,,,,,,,left,0.507,1,8,25,3,1,,,,,,,,,
,,,,,,,stim2/pa+30.wav,5f67c61d4084d6407fb4a346,2021-01-19_22h14.05.496,English_step1,2020.2.3,Win32,60,,,,,,,,,,,,,,,,,,left,0.49,1,9,26,5,1,,,,,,,,,
,,,,,,,stim2/pa-15.wav,5f67c61d4084d6407fb4a346,2021-01-19_22h14.05.496,English_step1,2020.2.3,Win32,60,,,,,,,,,,,,,,,,,,right,0.508,1,10,27,12,1,,,,,,,,,
,,,,,,,stim2/pa-25.wav,5f67c61d4084d6407fb4a346,2021-01-19_22h14.05.496,English_step1,2020.2.3,Win32,60,,,,,,,,,,,,,,,,,,right,0.608,1,11,28,14,1,,,,,,,,,
,,,,,,,stim2/pa-30.wav,5f67c61d4084d6407fb4a346,2021-01-19_22h14.05.496,English_step1,2020.2.3,Win32,60,,,,,,,,,,,,,,,,,,right,0.625,1,12,29,15,1,,,,,,,,,
,,,,,,,stim2/pa-05.wav,5f67c61d4084d6407fb4a346,2021-01-19_22h14.05.496,English_step1,2020.2.3,Win32,60,,,,,,,,,,,,,,,,,,left,0.526,1,13,30,10,1,,,,,,,,,
,,,,,,,stim2/pa-10.wav,5f67c61d4084d6407fb4a346,2021-01-19_22h14.05.496,English_step1,2020.2.3,Win32,60,,,,,,,,,,,,,,,,,,left,0.411,1,14,31,11,1,,,,,,,,,
,,,,,,,stim2/pa+05.wav,5f67c61d4084d6407fb4a346,2021-01-19_22h14.05.496,English_step1,2020.2.3,Win32,60,,,,,,,,,,,,,,,,,,left,0.508,1,15,32,0,1,,,,,,,,,
,,,,,,,stim2/pa+10.wav,5f67c61d4084d6407fb4a346,2021-01-19_22h14.05.496,English_step1,2020.2.3,Win32,60,,,,,,,,,,,,,,,,,,left,0.492,1,16,33,1,1,,,,,,,,,
,,,,,,,stim2/pa+15.wav,5f67c61d4084d6407fb4a346,2021-01-19_22h14.05.496,English_step1,2020.2.3,Win32,60,,,,,,,,,,,,,,,,,,right,0.424,2,0,34,2,1,,,,,,,,,
,,,,,,,stim2/pa+10.wav,5f67c61d4084d6407fb4a346,2021-01-19_22h14.05.496,English_step1,2020.2.3,Win32,60,,,,,,,,,,,,,,,,,,right,0.525,2,1,35,1,1,,,,,,,,,
,,,,,,,stim2/pa-25.wav,5f67c61d4084d6407fb4a346,2021-01-19_22h14.05.496,English_step1,2020.2.3,Win32,60,,,,,,,,,,,,,,,,,,right,0.614,2,2,36,14,1,,,,,,,,,
,,,,,,,stim2/pa-15.wav,5f67c61d4084d6407fb4a346,2021-01-19_22h14.05.496,English_step1,2020.2.3,Win32,60,,,,,,,,,,,,,,,,,,left,0.76,2,3,37,12,1,,,,,,,,,
,,,,,,,stim2/pa-20.wav,5f67c61d4084d6407fb4a346,2021-01-19_22h14.05.496,English_step1,2020.2.3,Win32,60,,,,,,,,,,,,,,,,,,right,0.674,2,4,38,13,1,,,,,,,,,
,,,,,,,stim2/pa+40.wav,5f67c61d4084d6407fb4a346,2021-01-19_22h14.05.496,English_step1,2020.2.3,Win32,60,,,,,,,,,,,,,,,,,,left,1.149,2,5,39,7,1,,,,,,,,,
,,,,,,,stim2/pa-10.wav,5f67c61d4084d6407fb4a346,2021-01-19_22h14.05.496,English_step1,2020.2.3,Win32,60,,,,,,,,,,,,,,,,,,left,0.792,2,6,40,11,1,,,,,,,,,
,,,,,,,stim2/pa+20.wav,5f67c61d4084d6407fb4a346,2021-01-19_22h14.05.496,English_step1,2020.2.3,Win32,60,,,,,,,,,,,,,,,,,,right,0.529,2,7,41,3,1,,,,,,,,,
,,,,,,,stim2/pa+50.wav,5f67c61d4084d6407fb4a346,2021-01-19_22h14.05.496,English_step1,2020.2.3,Win32,60,,,,,,,,,,,,,,,,,,left,0.913,2,8,42,9,1,,,,,,,,,
,,,,,,,stim2/pa+45.wav,5f67c61d4084d6407fb4a346,2021-01-19_22h14.05.496,English_step1,2020.2.3,Win32,60,,,,,,,,,,,,,,,,,,left,0.675,2,9,43,8,1,,,,,,,,,
,,,,,,,stim2/pa+25.wav,5f67c61d4084d6407fb4a346,2021-01-19_22h14.05.496,English_step1,2020.2.3,Win32,60,,,,,,,,,,,,,,,,,,right,0.429,2,10,44,4,1,,,,,,,,,
,,,,,,,stim2/pa+35.wav,5f67c61d4084d6407fb4a346,2021-01-19_22h14.05.496,English_step1,2020.2.3,Win32,60,,,,,,,,,,,,,,,,,,right,0.491,2,11,45,6,1,,,,,,,,,
,,,,,,,stim2/pa-35.wav,5f67c61d4084d6407fb4a346,2021-01-19_22h14.05.496,English_step1,2020.2.3,Win32,60,,,,,,,,,,,,,,,,,,right,0.424,2,12,46,16,1,,,,,,,,,
,,,,,,,stim2/pa-30.wav,5f67c61d4084d6407fb4a346,2021-01-19_22h14.05.496,English_step1,2020.2.3,Win32,60,,,,,,,,,,,,,,,,,,right,0.557,2,13,47,15,1,,,,,,,,,
,,,,,,,stim2/pa+30.wav,5f67c61d4084d6407fb4a346,2021-01-19_22h14.05.496,English_step1,2020.2.3,Win32,60,,,,,,,,,,,,,,,,,,left,0.963,2,14,48,5,1,,,,,,,,,
,,,,,,,stim2/pa-05.wav,5f67c61d4084d6407fb4a346,2021-01-19_22h14.05.496,English_step1,2020.2.3,Win32,60,,,,,,,,,,,,,,,,,,right,0.625,2,15,49,10,1,,,,,,,,,
,,,,,,,stim2/pa+05.wav,5f67c61d4084d6407fb4a346,2021-01-19_22h14.05.496,English_step1,2020.2.3,Win32,60,,,,,,,,,,,,,,,,,,left,1.031,2,16,50,0,1,,,,,,,,,
,,,,,,,stim2/pa-15.wav,5f67c61d4084d6407fb4a346,2021-01-19_22h14.05.496,English_step1,2020.2.3,Win32,60,,,,,,,,,,,,,,,,,,right,0.826,,,,,,q,3.281,0,0,0,12,1,,
,,,,,,,stim2/pa+45.wav,5f67c61d4084d6407fb4a346,2021-01-19_22h14.05.496,English_step1,2020.2.3,Win32,60,,,,,,,,,,,,,,,,,,left,0.691,,,,,,,,0,1,1,8,1,,
,,,,,,,stim2/pa-25.wav,5f67c61d4084d6407fb4a346,2021-01-19_22h14.05.496,English_step1,2020.2.3,Win32,60,,,,,,,,,,,,,,,,,,right,0.675,,,,,,,,0,2,2,14,1,,
,,,,,,,stim2/pa+15.wav,5f67c61d4084d6407fb4a346,2021-01-19_22h14.05.496,English_step1,2020.2.3,Win32,60,,,,,,,,,,,,,,,,,,left,0.591,,,,,,,,0,3,3,2,1,,
,,,,,,,stim2/pa+05.wav,5f67c61d4084d6407fb4a346,2021-01-19_22h14.05.496,English_step1,2020.2.3,Win32,60,,,,,,,,,,,,,,,,,,left,0.612,,,,,,,,0,4,4,0,1,,
,,,,,,,stim2/pa+35.wav,5f67c61d4084d6407fb4a346,2021-01-19_22h14.05.496,English_step1,2020.2.3,Win32,60,,,,,,,,,,,,,,,,,,left,0.608,,,,,,,,0,5,5,6,1,,
,,,,,,,stim2/pa+25.wav,5f67c61d4084d6407fb4a346,2021-01-19_22h14.05.496,English_step1,2020.2.3,Win32,60,,,,,,,,,,,,,,,,,,right,0.527,,,,,,,,0,6,6,4,1,,
,,,,,,,stim2/pa+10.wav,5f67c61d4084d6407fb4a346,2021-01-19_22h14.05.496,English_step1,2020.2.3,Win32,60,,,,,,,,,,,,,,,,,,left,0.675,,,,,,,,0,7,7,1,1,,
,,,,,,,stim2/pa+30.wav,5f67c61d4084d6407fb4a346,2021-01-19_22h14.05.496,English_step1,2020.2.3,Win32,60,,,,,,,,,,,,,,,,,,right,0.44,,,,,,,,0,8,8,5,1,,
,,,,,,,stim2/pa-05.wav,5f67c61d4084d6407fb4a346,2021-01-19_22h14.05.496,English_step1,2020.2.3,Win32,60,,,,,,,,,,,,,,,,,,right,0.457,,,,,,,,0,9,9,10,1,,
,,,,,,,stim2/pa+50.wav,5f67c61d4084d6407fb4a346,2021-01-19_22h14.05.496,English_step1,2020.2.3,Win32,60,,,,,,,,,,,,,,,,,,right,0.491,,,,,,,,0,10,10,9,1,,
,,,,,,,stim2/pa+40.wav,5f67c61d4084d6407fb4a346,2021-01-19_22h14.05.496,English_step1,2020.2.3,Win32,60,,,,,,,,,,,,,,,,,,left,0.493,,,,,,,,0,11,11,7,1,,
,,,,,,,stim2/pa-10.wav,5f67c61d4084d6407fb4a346,2021-01-19_22h14.05.496,English_step1,2020.2.3,Win32,60,,,,,,,,,,,,,,,,,,right,0.626,,,,,,,,0,12,12,11,1,,
,,,,,,,stim2/pa-30.wav,5f67c61d4084d6407fb4a346,2021-01-19_22h14.05.496,English_step1,2020.2.3,Win32,60,,,,,,,,,,,,,,,,,,right,1.061,,,,,,,,0,13,13,15,1,,
,,,,,,,stim2/pa-20.wav,5f67c61d4084d6407fb4a346,2021-01-19_22h14.05.496,English_step1,2020.2.3,Win32,60,,,,,,,,,,,,,,,,,,right,0.777,,,,,,,,0,14,14,13,1,,
,,,,,,,stim2/pa+20.wav,5f67c61d4084d6407fb4a346,2021-01-19_22h14.05.496,English_step1,2020.2.3,Win32,60,,,,,,,,,,,,,,,,,,left,0.591,,,,,,,,0,15,15,3,1,,
,,,,,,,stim2/pa-35.wav,5f67c61d4084d6407fb4a346,2021-01-19_22h14.05.496,English_step1,2020.2.3,Win32,60,,,,,,,,,,,,,,,,,,right,1.262,,,,,,,,0,16,16,16,1,,
,,,,,,,stim2/pa+10.wav,5f67c61d4084d6407fb4a346,2021-01-19_22h14.05.496,English_step1,2020.2.3,Win32,60,,,,,,,,,,,,,,,,,,left,0.508,,,,,,,,1,0,17,1,1,,
,,,,,,,stim2/pa-35.wav,5f67c61d4084d6407fb4a346,2021-01-19_22h14.05.496,English_step1,2020.2.3,Win32,60,,,,,,,,,,,,,,,,,,right,0.809,,,,,,,,1,1,18,16,1,,
,,,,,,,stim2/pa+05.wav,5f67c61d4084d6407fb4a346,2021-01-19_22h14.05.496,English_step1,2020.2.3,Win32,60,,,,,,,,,,,,,,,,,,left,0.475,,,,,,,,1,2,19,0,1,,
,,,,,,,stim2/pa+45.wav,5f67c61d4084d6407fb4a346,2021-01-19_22h14.05.496,English_step1,2020.2.3,Win32,60,,,,,,,,,,,,,,,,,,left,0.725,,,,,,,,1,3,20,8,1,,
,,,,,,,stim2/pa+35.wav,5f67c61d4084d6407fb4a346,2021-01-19_22h14.05.496,English_step1,2020.2.3,Win32,60,,,,,,,,,,,,,,,,,,left,0.722,,,,,,,,1,4,21,6,1,,
,,,,,,,stim2/pa-10.wav,5f67c61d4084d6407fb4a346,2021-01-19_22h14.05.496,English_step1,2020.2.3,Win32,60,,,,,,,,,,,,,,,,,,right,0.408,,,,,,,,1,5,22,11,1,,
,,,,,,,stim2/pa+30.wav,5f67c61d4084d6407fb4a346,2021-01-19_22h14.05.496,English_step1,2020.2.3,Win32,60,,,,,,,,,,,,,,,,,,right,0.956,,,,,,,,1,6,23,5,1,,
,,,,,,,stim2/pa-15.wav,5f67c61d4084d6407fb4a346,2021-01-19_22h14.05.496,English_step1,2020.2.3,Win32,60,,,,,,,,,,,,,,,,,,left,0.636,,,,,,,,1,7,24,12,1,,
,,,,,,,stim2/pa-05.wav,5f67c61d4084d6407fb4a346,2021-01-19_22h14.05.496,English_step1,2020.2.3,Win32,60,,,,,,,,,,,,,,,,,,left,0.759,,,,,,,,1,8,25,10,1,,
,,,,,,,stim2/pa+40.wav,5f67c61d4084d6407fb4a346,2021-01-19_22h14.05.496,English_step1,2020.2.3,Win32,60,,,,,,,,,,,,,,,,,,left,0.827,,,,,,,,1,9,26,7,1,,
,,,,,,,stim2/pa-20.wav,5f67c61d4084d6407fb4a346,2021-01-19_22h14.05.496,English_step1,2020.2.3,Win32,60,,,,,,,,,,,,,,,,,,right,0.892,,,,,,,,1,10,27,13,1,,
,,,,,,,stim2/pa+50.wav,5f67c61d4084d6407fb4a346,2021-01-19_22h14.05.496,English_step1,2020.2.3,Win32,60,,,,,,,,,,,,,,,,,,left,0.78,,,,,,,,1,11,28,9,1,,
,,,,,,,stim2/pa-25.wav,5f67c61d4084d6407fb4a346,2021-01-19_22h14.05.496,English_step1,2020.2.3,Win32,60,,,,,,,,,,,,,,,,,,right,0.491,,,,,,,,1,12,29,14,1,,
,,,,,,,stim2/pa+20.wav,5f67c61d4084d6407fb4a346,2021-01-19_22h14.05.496,English_step1,2020.2.3,Win32,60,,,,,,,,,,,,,,,,,,left,0.609,,,,,,,,1,13,30,3,1,,
,,,,,,,stim2/pa+15.wav,5f67c61d4084d6407fb4a346,2021-01-19_22h14.05.496,English_step1,2020.2.3,Win32,60,,,,,,,,,,,,,,,,,,right,0.573,,,,,,,,1,14,31,2,1,,
,,,,,,,stim2/pa+25.wav,5f67c61d4084d6407fb4a346,2021-01-19_22h14.05.496,English_step1,2020.2.3,Win32,60,,,,,,,,,,,,,,,,,,left,0.374,,,,,,,,1,15,32,4,1,,
,,,,,,,stim2/pa-30.wav,5f67c61d4084d6407fb4a346,2021-01-19_22h14.05.496,English_step1,2020.2.3,Win32,60,,,,,,,,,,,,,,,,,,right,0.524,,,,,,,,1,16,33,15,1,,
,,,,,,,,5f67c61d4084d6407fb4a346,2021-01-19_22h14.05.496,English_step1,2020.2.3,Win32,60,,,,,,,,,,,,,,,,,,,,,,,,,,,,,,,,space,31.079
