resp.keys,resp.rt,trials.thisRepN,trials.thisTrialN,trials.thisN,trials.thisIndex,trials.ran,stimuli,participant,date,expName,psychopyVersion,OS,frameRate,gotResponse.keys,gotResponse.rt,resp_2.keys,resp_2.rt,trials_2.thisRepN,trials_2.thisTrialN,trials_2.thisN,trials_2.thisIndex,trials_2.ran,key_resp_3.keys,key_resp_3.corr,key_resp_3.rt,trials_4.thisRepN,trials_4.thisTrialN,trials_4.thisN,trials_4.thisIndex,trials_4.ran,resp_3.keys,resp_3.rt,trials_3.thisRepN,trials_3.thisTrialN,trials_3.thisN,trials_3.thisIndex,trials_3.ran,key_resp_2.keys,key_resp_2.rt,trials_5.thisRepN,trials_5.thisTrialN,trials_5.thisN,trials_5.thisIndex,trials_5.ran,key_resp.keys,key_resp.rt
left,29.59977,0,0,0,0,1,stim/VC_01.wav,5fa379c756d0fe67b022823b,2021-01-21_00h11.25.703,English_step1,2020.2.3,Win32,60,,,,,,,,,,,,,,,,,,,,,,,,,,,,,,,,,
right,1.3977,0,1,1,1,1,stim/VC_11.wav,5fa379c756d0fe67b022823b,2021-01-21_00h11.25.703,English_step1,2020.2.3,Win32,60,,,,,,,,,,,,,,,,,,,,,,,,,,,,,,,,,
,,,,,,,stim/VC_08.wav,5fa379c756d0fe67b022823b,2021-01-21_00h11.25.703,English_step1,2020.2.3,Win32,60,space,3.55351,left,3.8236,0,0,0,7,1,,,,,,,,,,,,,,,,,,,,,,,,
,,,,,,,stim/VC_11.wav,5fa379c756d0fe67b022823b,2021-01-21_00h11.25.703,English_step1,2020.2.3,Win32,60,,,right,1.65176,0,1,1,10,1,,,,,,,,,,,,,,,,,,,,,,,,
,,,,,,,stim/VC_10.wav,5fa379c756d0fe67b022823b,2021-01-21_00h11.25.703,English_step1,2020.2.3,Win32,60,,,right,1.052745,0,2,2,9,1,,,,,,,,,,,,,,,,,,,,,,,,
,,,,,,,stim/VC_09.wav,5fa379c756d0fe67b022823b,2021-01-21_00h11.25.703,English_step1,2020.2.3,Win32,60,,,right,1.453175,0,3,3,8,1,,,,,,,,,,,,,,,,,,,,,,,,
,,,,,,,stim/VC_01.wav,5fa379c756d0fe67b022823b,2021-01-21_00h11.25.703,English_step1,2020.2.3,Win32,60,,,left,0.86982,0,4,4,0,1,,,,,,,,,,,,,,,,,,,,,,,,
,,,,,,,stim/VC_04.wav,5fa379c756d0fe67b022823b,2021-01-21_00h11.25.703,English_step1,2020.2.3,Win32,60,,,left,0.88446,0,5,5,3,1,,,,,,,,,,,,,,,,,,,,,,,,
,,,,,,,stim/VC_02.wav,5fa379c756d0fe67b022823b,2021-01-21_00h11.25.703,English_step1,2020.2.3,Win32,60,,,left,0.6256,0,6,6,1,1,,,,,,,,,,,,,,,,,,,,,,,,
,,,,,,,stim/VC_03.wav,5fa379c756d0fe67b022823b,2021-01-21_00h11.25.703,English_step1,2020.2.3,Win32,60,,,left,0.51746,0,7,7,2,1,,,,,,,,,,,,,,,,,,,,,,,,
,,,,,,,stim/VC_07.wav,5fa379c756d0fe67b022823b,2021-01-21_00h11.25.703,English_step1,2020.2.3,Win32,60,,,left,0.584635,0,8,8,6,1,,,,,,,,,,,,,,,,,,,,,,,,
,,,,,,,stim/VC_06.wav,5fa379c756d0fe67b022823b,2021-01-21_00h11.25.703,English_step1,2020.2.3,Win32,60,,,left,0.51673,0,9,9,5,1,,,,,,,,,,,,,,,,,,,,,,,,
,,,,,,,stim/VC_05.wav,5fa379c756d0fe67b022823b,2021-01-21_00h11.25.703,English_step1,2020.2.3,Win32,60,,,left,0.60163,0,10,10,4,1,,,,,,,,,,,,,,,,,,,,,,,,
,,,,,,,stim/VC_03.wav,5fa379c756d0fe67b022823b,2021-01-21_00h11.25.703,English_step1,2020.2.3,Win32,60,,,left,0.542375,1,0,11,2,1,,,,,,,,,,,,,,,,,,,,,,,,
,,,,,,,stim/VC_06.wav,5fa379c756d0fe67b022823b,2021-01-21_00h11.25.703,English_step1,2020.2.3,Win32,60,,,left,0.536015,1,1,12,5,1,,,,,,,,,,,,,,,,,,,,,,,,
,,,,,,,stim/VC_04.wav,5fa379c756d0fe67b022823b,2021-01-21_00h11.25.703,English_step1,2020.2.3,Win32,60,,,left,0.500845,1,2,13,3,1,,,,,,,,,,,,,,,,,,,,,,,,
,,,,,,,stim/VC_10.wav,5fa379c756d0fe67b022823b,2021-01-21_00h11.25.703,English_step1,2020.2.3,Win32,60,,,left,0.47607,1,3,14,9,1,,,,,,,,,,,,,,,,,,,,,,,,
,,,,,,,stim/VC_11.wav,5fa379c756d0fe67b022823b,2021-01-21_00h11.25.703,English_step1,2020.2.3,Win32,60,,,left,0.41757,1,4,15,10,1,,,,,,,,,,,,,,,,,,,,,,,,
,,,,,,,stim/VC_01.wav,5fa379c756d0fe67b022823b,2021-01-21_00h11.25.703,English_step1,2020.2.3,Win32,60,,,left,1.219315,1,5,16,0,1,,,,,,,,,,,,,,,,,,,,,,,,
,,,,,,,stim/VC_05.wav,5fa379c756d0fe67b022823b,2021-01-21_00h11.25.703,English_step1,2020.2.3,Win32,60,,,left,0.602565,1,6,17,4,1,,,,,,,,,,,,,,,,,,,,,,,,
,,,,,,,stim/VC_07.wav,5fa379c756d0fe67b022823b,2021-01-21_00h11.25.703,English_step1,2020.2.3,Win32,60,,,left,0.55129,1,7,18,6,1,,,,,,,,,,,,,,,,,,,,,,,,
,,,,,,,stim/VC_02.wav,5fa379c756d0fe67b022823b,2021-01-21_00h11.25.703,English_step1,2020.2.3,Win32,60,,,left,0.56885,1,8,19,1,1,,,,,,,,,,,,,,,,,,,,,,,,
,,,,,,,stim/VC_09.wav,5fa379c756d0fe67b022823b,2021-01-21_00h11.25.703,English_step1,2020.2.3,Win32,60,,,left,0.70319,1,9,20,8,1,,,,,,,,,,,,,,,,,,,,,,,,
,,,,,,,stim/VC_08.wav,5fa379c756d0fe67b022823b,2021-01-21_00h11.25.703,English_step1,2020.2.3,Win32,60,,,left,3.425415,1,10,21,7,1,,,,,,,,,,,,,,,,,,,,,,,,
,,,,,,,stim/VC_01.wav,5fa379c756d0fe67b022823b,2021-01-21_00h11.25.703,English_step1,2020.2.3,Win32,60,,,left,0.685605,2,0,22,0,1,,,,,,,,,,,,,,,,,,,,,,,,
,,,,,,,stim/VC_04.wav,5fa379c756d0fe67b022823b,2021-01-21_00h11.25.703,English_step1,2020.2.3,Win32,60,,,left,0.51484,2,1,23,3,1,,,,,,,,,,,,,,,,,,,,,,,,
,,,,,,,stim/VC_06.wav,5fa379c756d0fe67b022823b,2021-01-21_00h11.25.703,English_step1,2020.2.3,Win32,60,,,left,0.585115,2,2,24,5,1,,,,,,,,,,,,,,,,,,,,,,,,
,,,,,,,stim/VC_11.wav,5fa379c756d0fe67b022823b,2021-01-21_00h11.25.703,English_step1,2020.2.3,Win32,60,,,right,0.968195,2,3,25,10,1,,,,,,,,,,,,,,,,,,,,,,,,
,,,,,,,stim/VC_03.wav,5fa379c756d0fe67b022823b,2021-01-21_00h11.25.703,English_step1,2020.2.3,Win32,60,,,left,0.58007,2,4,26,2,1,,,,,,,,,,,,,,,,,,,,,,,,
,,,,,,,stim/VC_02.wav,5fa379c756d0fe67b022823b,2021-01-21_00h11.25.703,English_step1,2020.2.3,Win32,60,,,left,0.58745,2,5,27,1,1,,,,,,,,,,,,,,,,,,,,,,,,
,,,,,,,stim/VC_07.wav,5fa379c756d0fe67b022823b,2021-01-21_00h11.25.703,English_step1,2020.2.3,Win32,60,,,right,2.75969,2,6,28,6,1,,,,,,,,,,,,,,,,,,,,,,,,
,,,,,,,stim/VC_08.wav,5fa379c756d0fe67b022823b,2021-01-21_00h11.25.703,English_step1,2020.2.3,Win32,60,,,left,3.852185,2,7,29,7,1,,,,,,,,,,,,,,,,,,,,,,,,
,,,,,,,stim/VC_09.wav,5fa379c756d0fe67b022823b,2021-01-21_00h11.25.703,English_step1,2020.2.3,Win32,60,,,left,2.35398,2,8,30,8,1,,,,,,,,,,,,,,,,,,,,,,,,
,,,,,,,stim/VC_10.wav,5fa379c756d0fe67b022823b,2021-01-21_00h11.25.703,English_step1,2020.2.3,Win32,60,,,right,0.800235,2,9,31,9,1,,,,,,,,,,,,,,,,,,,,,,,,
,,,,,,,stim/VC_05.wav,5fa379c756d0fe67b022823b,2021-01-21_00h11.25.703,English_step1,2020.2.3,Win32,60,,,left,0.676785,2,10,32,4,1,,,,,,,,,,,,,,,,,,,,,,,,
,,,,,,,stim/VC_09.wav,5fa379c756d0fe67b022823b,2021-01-21_00h11.25.703,English_step1,2020.2.3,Win32,60,,,left,2.23536,,,,,,4,0,4.16719,0,0,0,8,1,,,,,,,,,,,,,,,,
,,,,,,,stim/VC_02.wav,5fa379c756d0fe67b022823b,2021-01-21_00h11.25.703,English_step1,2020.2.3,Win32,60,,,left,0.83387,,,,,,,,,0,1,1,1,1,,,,,,,,,,,,,,,,
,,,,,,,stim/VC_05.wav,5fa379c756d0fe67b022823b,2021-01-21_00h11.25.703,English_step1,2020.2.3,Win32,60,,,left,0.71459,,,,,,,,,0,2,2,4,1,,,,,,,,,,,,,,,,
,,,,,,,stim/VC_06.wav,5fa379c756d0fe67b022823b,2021-01-21_00h11.25.703,English_step1,2020.2.3,Win32,60,,,left,0.67378,,,,,,,,,0,3,3,5,1,,,,,,,,,,,,,,,,
,,,,,,,stim/VC_04.wav,5fa379c756d0fe67b022823b,2021-01-21_00h11.25.703,English_step1,2020.2.3,Win32,60,,,left,0.784555,,,,,,,,,0,4,4,3,1,,,,,,,,,,,,,,,,
,,,,,,,stim/VC_08.wav,5fa379c756d0fe67b022823b,2021-01-21_00h11.25.703,English_step1,2020.2.3,Win32,60,,,right,0.89653,,,,,,,,,0,5,5,7,1,,,,,,,,,,,,,,,,
,,,,,,,stim/VC_03.wav,5fa379c756d0fe67b022823b,2021-01-21_00h11.25.703,English_step1,2020.2.3,Win32,60,,,left,0.567125,,,,,,,,,0,6,6,2,1,,,,,,,,,,,,,,,,
,,,,,,,stim/VC_07.wav,5fa379c756d0fe67b022823b,2021-01-21_00h11.25.703,English_step1,2020.2.3,Win32,60,,,left,0.62014,,,,,,,,,0,7,7,6,1,,,,,,,,,,,,,,,,
,,,,,,,stim/VC_10.wav,5fa379c756d0fe67b022823b,2021-01-21_00h11.25.703,English_step1,2020.2.3,Win32,60,,,right,0.552895,,,,,,,,,0,8,8,9,1,,,,,,,,,,,,,,,,
,,,,,,,stim/VC_01.wav,5fa379c756d0fe67b022823b,2021-01-21_00h11.25.703,English_step1,2020.2.3,Win32,60,,,left,0.503595,,,,,,,,,0,9,9,0,1,,,,,,,,,,,,,,,,
,,,,,,,stim/VC_11.wav,5fa379c756d0fe67b022823b,2021-01-21_00h11.25.703,English_step1,2020.2.3,Win32,60,,,right,0.684215,,,,,,,,,0,10,10,10,1,,,,,,,,,,,,,,,,
,,,,,,,stim/VC_03.wav,5fa379c756d0fe67b022823b,2021-01-21_00h11.25.703,English_step1,2020.2.3,Win32,60,,,left,0.484765,,,,,,,,,1,0,11,2,1,,,,,,,,,,,,,,,,
,,,,,,,stim/VC_02.wav,5fa379c756d0fe67b022823b,2021-01-21_00h11.25.703,English_step1,2020.2.3,Win32,60,,,left,0.459885,,,,,,,,,1,1,12,1,1,,,,,,,,,,,,,,,,
,,,,,,,stim/VC_01.wav,5fa379c756d0fe67b022823b,2021-01-21_00h11.25.703,English_step1,2020.2.3,Win32,60,,,left,0.811865,,,,,,,,,1,2,13,0,1,,,,,,,,,,,,,,,,
,,,,,,,stim/VC_06.wav,5fa379c756d0fe67b022823b,2021-01-21_00h11.25.703,English_step1,2020.2.3,Win32,60,,,right,0.65314,,,,,,,,,1,3,14,5,1,,,,,,,,,,,,,,,,
,,,,,,,stim/VC_07.wav,5fa379c756d0fe67b022823b,2021-01-21_00h11.25.703,English_step1,2020.2.3,Win32,60,,,left,0.61819,,,,,,,,,1,4,15,6,1,,,,,,,,,,,,,,,,
,,,,,,,stim/VC_08.wav,5fa379c756d0fe67b022823b,2021-01-21_00h11.25.703,English_step1,2020.2.3,Win32,60,,,right,2.151485,,,,,,,,,1,5,16,7,1,,,,,,,,,,,,,,,,
,,,,,,,stim/VC_05.wav,5fa379c756d0fe67b022823b,2021-01-21_00h11.25.703,English_step1,2020.2.3,Win32,60,,,left,0.84082,,,,,,,,,1,6,17,4,1,,,,,,,,,,,,,,,,
,,,,,,,stim/VC_09.wav,5fa379c756d0fe67b022823b,2021-01-21_00h11.25.703,English_step1,2020.2.3,Win32,60,,,right,0.582855,,,,,,,,,1,7,18,8,1,,,,,,,,,,,,,,,,
,,,,,,,stim/VC_10.wav,5fa379c756d0fe67b022823b,2021-01-21_00h11.25.703,English_step1,2020.2.3,Win32,60,,,right,0.651365,,,,,,,,,1,8,19,9,1,,,,,,,,,,,,,,,,
,,,,,,,stim/VC_11.wav,5fa379c756d0fe67b022823b,2021-01-21_00h11.25.703,English_step1,2020.2.3,Win32,60,,,right,0.445035,,,,,,,,,1,9,20,10,1,,,,,,,,,,,,,,,,
,,,,,,,stim/VC_04.wav,5fa379c756d0fe67b022823b,2021-01-21_00h11.25.703,English_step1,2020.2.3,Win32,60,,,left,0.572705,,,,,,,,,1,10,21,3,1,,,,,,,,,,,,,,,,
,,,,,,,stim2/pa+40.wav,5fa379c756d0fe67b022823b,2021-01-21_00h11.25.703,English_step1,2020.2.3,Win32,60,,,,,,,,,,,,,,,,,,left,3.12166,0,0,0,7,1,,,,,,,,,
,,,,,,,stim2/pa-30.wav,5fa379c756d0fe67b022823b,2021-01-21_00h11.25.703,English_step1,2020.2.3,Win32,60,,,,,,,,,,,,,,,,,,right,1.039285,0,1,1,15,1,,,,,,,,,
,,,,,,,stim2/pa-35.wav,5fa379c756d0fe67b022823b,2021-01-21_00h11.25.703,English_step1,2020.2.3,Win32,60,,,,,,,,,,,,,,,,,,right,0.65196,0,2,2,16,1,,,,,,,,,
,,,,,,,stim2/pa-10.wav,5fa379c756d0fe67b022823b,2021-01-21_00h11.25.703,English_step1,2020.2.3,Win32,60,,,,,,,,,,,,,,,,,,right,0.63966,0,3,3,11,1,,,,,,,,,
,,,,,,,stim2/pa-15.wav,5fa379c756d0fe67b022823b,2021-01-21_00h11.25.703,English_step1,2020.2.3,Win32,60,,,,,,,,,,,,,,,,,,right,0.618455,0,4,4,12,1,,,,,,,,,
,,,,,,,stim2/pa+25.wav,5fa379c756d0fe67b022823b,2021-01-21_00h11.25.703,English_step1,2020.2.3,Win32,60,,,,,,,,,,,,,,,,,,left,0.734725,0,5,5,4,1,,,,,,,,,
,,,,,,,stim2/pa+45.wav,5fa379c756d0fe67b022823b,2021-01-21_00h11.25.703,English_step1,2020.2.3,Win32,60,,,,,,,,,,,,,,,,,,left,0.553225,0,6,6,8,1,,,,,,,,,
,,,,,,,stim2/pa+30.wav,5fa379c756d0fe67b022823b,2021-01-21_00h11.25.703,English_step1,2020.2.3,Win32,60,,,,,,,,,,,,,,,,,,left,0.38479,0,7,7,5,1,,,,,,,,,
,,,,,,,stim2/pa+50.wav,5fa379c756d0fe67b022823b,2021-01-21_00h11.25.703,English_step1,2020.2.3,Win32,60,,,,,,,,,,,,,,,,,,left,0.51376,0,8,8,9,1,,,,,,,,,
,,,,,,,stim2/pa+35.wav,5fa379c756d0fe67b022823b,2021-01-21_00h11.25.703,English_step1,2020.2.3,Win32,60,,,,,,,,,,,,,,,,,,left,0.60136,0,9,9,6,1,,,,,,,,,
,,,,,,,stim2/pa-20.wav,5fa379c756d0fe67b022823b,2021-01-21_00h11.25.703,English_step1,2020.2.3,Win32,60,,,,,,,,,,,,,,,,,,right,0.69164,0,10,10,13,1,,,,,,,,,
,,,,,,,stim2/pa+10.wav,5fa379c756d0fe67b022823b,2021-01-21_00h11.25.703,English_step1,2020.2.3,Win32,60,,,,,,,,,,,,,,,,,,left,0.54745,0,11,11,1,1,,,,,,,,,
,,,,,,,stim2/pa-05.wav,5fa379c756d0fe67b022823b,2021-01-21_00h11.25.703,English_step1,2020.2.3,Win32,60,,,,,,,,,,,,,,,,,,left,0.52322,0,12,12,10,1,,,,,,,,,
,,,,,,,stim2/pa+15.wav,5fa379c756d0fe67b022823b,2021-01-21_00h11.25.703,English_step1,2020.2.3,Win32,60,,,,,,,,,,,,,,,,,,left,0.46787,0,13,13,2,1,,,,,,,,,
,,,,,,,stim2/pa+20.wav,5fa379c756d0fe67b022823b,2021-01-21_00h11.25.703,English_step1,2020.2.3,Win32,60,,,,,,,,,,,,,,,,,,left,0.4072,0,14,14,3,1,,,,,,,,,
,,,,,,,stim2/pa-25.wav,5fa379c756d0fe67b022823b,2021-01-21_00h11.25.703,English_step1,2020.2.3,Win32,60,,,,,,,,,,,,,,,,,,right,0.602735,0,15,15,14,1,,,,,,,,,
,,,,,,,stim2/pa+05.wav,5fa379c756d0fe67b022823b,2021-01-21_00h11.25.703,English_step1,2020.2.3,Win32,60,,,,,,,,,,,,,,,,,,left,0.541335,0,16,16,0,1,,,,,,,,,
,,,,,,,stim2/pa+40.wav,5fa379c756d0fe67b022823b,2021-01-21_00h11.25.703,English_step1,2020.2.3,Win32,60,,,,,,,,,,,,,,,,,,left,0.979955,1,0,17,7,1,,,,,,,,,
,,,,,,,stim2/pa+15.wav,5fa379c756d0fe67b022823b,2021-01-21_00h11.25.703,English_step1,2020.2.3,Win32,60,,,,,,,,,,,,,,,,,,left,0.534845,1,1,18,2,1,,,,,,,,,
,,,,,,,stim2/pa-35.wav,5fa379c756d0fe67b022823b,2021-01-21_00h11.25.703,English_step1,2020.2.3,Win32,60,,,,,,,,,,,,,,,,,,right,0.466335,1,2,19,16,1,,,,,,,,,
,,,,,,,stim2/pa+35.wav,5fa379c756d0fe67b022823b,2021-01-21_00h11.25.703,English_step1,2020.2.3,Win32,60,,,,,,,,,,,,,,,,,,right,2.58359,1,3,20,6,1,,,,,,,,,
,,,,,,,stim2/pa+50.wav,5fa379c756d0fe67b022823b,2021-01-21_00h11.25.703,English_step1,2020.2.3,Win32,60,,,,,,,,,,,,,,,,,,right,0.94574,1,4,21,9,1,,,,,,,,,
,,,,,,,stim2/pa+05.wav,5fa379c756d0fe67b022823b,2021-01-21_00h11.25.703,English_step1,2020.2.3,Win32,60,,,,,,,,,,,,,,,,,,right,1.17166,1,5,22,0,1,,,,,,,,,
,,,,,,,stim2/pa+20.wav,5fa379c756d0fe67b022823b,2021-01-21_00h11.25.703,English_step1,2020.2.3,Win32,60,,,,,,,,,,,,,,,,,,right,0.53805,1,6,23,3,1,,,,,,,,,
,,,,,,,stim2/pa-20.wav,5fa379c756d0fe67b022823b,2021-01-21_00h11.25.703,English_step1,2020.2.3,Win32,60,,,,,,,,,,,,,,,,,,right,0.48841,1,7,24,13,1,,,,,,,,,
,,,,,,,stim2/pa+30.wav,5fa379c756d0fe67b022823b,2021-01-21_00h11.25.703,English_step1,2020.2.3,Win32,60,,,,,,,,,,,,,,,,,,left,0.6192,1,8,25,5,1,,,,,,,,,
,,,,,,,stim2/pa-15.wav,5fa379c756d0fe67b022823b,2021-01-21_00h11.25.703,English_step1,2020.2.3,Win32,60,,,,,,,,,,,,,,,,,,right,0.65183,1,9,26,12,1,,,,,,,,,
,,,,,,,stim2/pa+45.wav,5fa379c756d0fe67b022823b,2021-01-21_00h11.25.703,English_step1,2020.2.3,Win32,60,,,,,,,,,,,,,,,,,,left,0.523645,1,10,27,8,1,,,,,,,,,
,,,,,,,stim2/pa-05.wav,5fa379c756d0fe67b022823b,2021-01-21_00h11.25.703,English_step1,2020.2.3,Win32,60,,,,,,,,,,,,,,,,,,right,0.43114,1,11,28,10,1,,,,,,,,,
,,,,,,,stim2/pa-25.wav,5fa379c756d0fe67b022823b,2021-01-21_00h11.25.703,English_step1,2020.2.3,Win32,60,,,,,,,,,,,,,,,,,,right,0.96868,1,12,29,14,1,,,,,,,,,
,,,,,,,stim2/pa+10.wav,5fa379c756d0fe67b022823b,2021-01-21_00h11.25.703,English_step1,2020.2.3,Win32,60,,,,,,,,,,,,,,,,,,left,0.489765,1,13,30,1,1,,,,,,,,,
,,,,,,,stim2/pa-10.wav,5fa379c756d0fe67b022823b,2021-01-21_00h11.25.703,English_step1,2020.2.3,Win32,60,,,,,,,,,,,,,,,,,,right,0.481055,1,14,31,11,1,,,,,,,,,
,,,,,,,stim2/pa-30.wav,5fa379c756d0fe67b022823b,2021-01-21_00h11.25.703,English_step1,2020.2.3,Win32,60,,,,,,,,,,,,,,,,,,right,1.185735,1,15,32,15,1,,,,,,,,,
,,,,,,,stim2/pa+25.wav,5fa379c756d0fe67b022823b,2021-01-21_00h11.25.703,English_step1,2020.2.3,Win32,60,,,,,,,,,,,,,,,,,,right,0.509835,1,16,33,4,1,,,,,,,,,
,,,,,,,stim2/pa+20.wav,5fa379c756d0fe67b022823b,2021-01-21_00h11.25.703,English_step1,2020.2.3,Win32,60,,,,,,,,,,,,,,,,,,left,0.537485,2,0,34,3,1,,,,,,,,,
,,,,,,,stim2/pa+25.wav,5fa379c756d0fe67b022823b,2021-01-21_00h11.25.703,English_step1,2020.2.3,Win32,60,,,,,,,,,,,,,,,,,,left,0.468105,2,1,35,4,1,,,,,,,,,
,,,,,,,stim2/pa-20.wav,5fa379c756d0fe67b022823b,2021-01-21_00h11.25.703,English_step1,2020.2.3,Win32,60,,,,,,,,,,,,,,,,,,right,0.909265,2,2,36,13,1,,,,,,,,,
,,,,,,,stim2/pa+50.wav,5fa379c756d0fe67b022823b,2021-01-21_00h11.25.703,English_step1,2020.2.3,Win32,60,,,,,,,,,,,,,,,,,,left,0.540365,2,3,37,9,1,,,,,,,,,
,,,,,,,stim2/pa+45.wav,5fa379c756d0fe67b022823b,2021-01-21_00h11.25.703,English_step1,2020.2.3,Win32,60,,,,,,,,,,,,,,,,,,left,1.23503,2,4,38,8,1,,,,,,,,,
,,,,,,,stim2/pa+15.wav,5fa379c756d0fe67b022823b,2021-01-21_00h11.25.703,English_step1,2020.2.3,Win32,60,,,,,,,,,,,,,,,,,,left,0.546705,2,5,39,2,1,,,,,,,,,
,,,,,,,stim2/pa-35.wav,5fa379c756d0fe67b022823b,2021-01-21_00h11.25.703,English_step1,2020.2.3,Win32,60,,,,,,,,,,,,,,,,,,right,0.467785,2,6,40,16,1,,,,,,,,,
,,,,,,,stim2/pa-30.wav,5fa379c756d0fe67b022823b,2021-01-21_00h11.25.703,English_step1,2020.2.3,Win32,60,,,,,,,,,,,,,,,,,,right,1.0249,2,7,41,15,1,,,,,,,,,
,,,,,,,stim2/pa-10.wav,5fa379c756d0fe67b022823b,2021-01-21_00h11.25.703,English_step1,2020.2.3,Win32,60,,,,,,,,,,,,,,,,,,right,1.139045,2,8,42,11,1,,,,,,,,,
,,,,,,,stim2/pa+10.wav,5fa379c756d0fe67b022823b,2021-01-21_00h11.25.703,English_step1,2020.2.3,Win32,60,,,,,,,,,,,,,,,,,,right,0.642945,2,9,43,1,1,,,,,,,,,
,,,,,,,stim2/pa-15.wav,5fa379c756d0fe67b022823b,2021-01-21_00h11.25.703,English_step1,2020.2.3,Win32,60,,,,,,,,,,,,,,,,,,right,0.85948,2,10,44,12,1,,,,,,,,,
,,,,,,,stim2/pa+40.wav,5fa379c756d0fe67b022823b,2021-01-21_00h11.25.703,English_step1,2020.2.3,Win32,60,,,,,,,,,,,,,,,,,,left,0.573635,2,11,45,7,1,,,,,,,,,
,,,,,,,stim2/pa-25.wav,5fa379c756d0fe67b022823b,2021-01-21_00h11.25.703,English_step1,2020.2.3,Win32,60,,,,,,,,,,,,,,,,,,right,0.626205,2,12,46,14,1,,,,,,,,,
,,,,,,,stim2/pa+35.wav,5fa379c756d0fe67b022823b,2021-01-21_00h11.25.703,English_step1,2020.2.3,Win32,60,,,,,,,,,,,,,,,,,,left,0.819505,2,13,47,6,1,,,,,,,,,
,,,,,,,stim2/pa+05.wav,5fa379c756d0fe67b022823b,2021-01-21_00h11.25.703,English_step1,2020.2.3,Win32,60,,,,,,,,,,,,,,,,,,right,1.03526,2,14,48,0,1,,,,,,,,,
,,,,,,,stim2/pa+30.wav,5fa379c756d0fe67b022823b,2021-01-21_00h11.25.703,English_step1,2020.2.3,Win32,60,,,,,,,,,,,,,,,,,,left,0.454425,2,15,49,5,1,,,,,,,,,
,,,,,,,stim2/pa-05.wav,5fa379c756d0fe67b022823b,2021-01-21_00h11.25.703,English_step1,2020.2.3,Win32,60,,,,,,,,,,,,,,,,,,right,0.4878,2,16,50,10,1,,,,,,,,,
,,,,,,,stim2/pa+30.wav,5fa379c756d0fe67b022823b,2021-01-21_00h11.25.703,English_step1,2020.2.3,Win32,60,,,,,,,,,,,,,,,,,,left,1.20119,,,,,,q,2.002815,0,0,0,5,1,,
,,,,,,,stim2/pa-15.wav,5fa379c756d0fe67b022823b,2021-01-21_00h11.25.703,English_step1,2020.2.3,Win32,60,,,,,,,,,,,,,,,,,,right,0.535245,,,,,,,,0,1,1,12,1,,
,,,,,,,stim2/pa+50.wav,5fa379c756d0fe67b022823b,2021-01-21_00h11.25.703,English_step1,2020.2.3,Win32,60,,,,,,,,,,,,,,,,,,left,0.71849,,,,,,,,0,2,2,9,1,,
,,,,,,,stim2/pa-05.wav,5fa379c756d0fe67b022823b,2021-01-21_00h11.25.703,English_step1,2020.2.3,Win32,60,,,,,,,,,,,,,,,,,,right,0.489935,,,,,,,,0,3,3,10,1,,
,,,,,,,stim2/pa-30.wav,5fa379c756d0fe67b022823b,2021-01-21_00h11.25.703,English_step1,2020.2.3,Win32,60,,,,,,,,,,,,,,,,,,right,0.65097,,,,,,,,0,4,4,15,1,,
,,,,,,,stim2/pa+45.wav,5fa379c756d0fe67b022823b,2021-01-21_00h11.25.703,English_step1,2020.2.3,Win32,60,,,,,,,,,,,,,,,,,,left,0.44617,,,,,,,,0,5,5,8,1,,
,,,,,,,stim2/pa-10.wav,5fa379c756d0fe67b022823b,2021-01-21_00h11.25.703,English_step1,2020.2.3,Win32,60,,,,,,,,,,,,,,,,,,right,0.47282,,,,,,,,0,6,6,11,1,,
,,,,,,,stim2/pa-25.wav,5fa379c756d0fe67b022823b,2021-01-21_00h11.25.703,English_step1,2020.2.3,Win32,60,,,,,,,,,,,,,,,,,,right,0.55151,,,,,,,,0,7,7,14,1,,
,,,,,,,stim2/pa-20.wav,5fa379c756d0fe67b022823b,2021-01-21_00h11.25.703,English_step1,2020.2.3,Win32,60,,,,,,,,,,,,,,,,,,right,0.4851,,,,,,,,0,8,8,13,1,,
,,,,,,,stim2/pa+20.wav,5fa379c756d0fe67b022823b,2021-01-21_00h11.25.703,English_step1,2020.2.3,Win32,60,,,,,,,,,,,,,,,,,,left,0.36805,,,,,,,,0,9,9,3,1,,
,,,,,,,stim2/pa-35.wav,5fa379c756d0fe67b022823b,2021-01-21_00h11.25.703,English_step1,2020.2.3,Win32,60,,,,,,,,,,,,,,,,,,right,0.417275,,,,,,,,0,10,10,16,1,,
,,,,,,,stim2/pa+05.wav,5fa379c756d0fe67b022823b,2021-01-21_00h11.25.703,English_step1,2020.2.3,Win32,60,,,,,,,,,,,,,,,,,,left,0.400025,,,,,,,,0,11,11,0,1,,
,,,,,,,stim2/pa+40.wav,5fa379c756d0fe67b022823b,2021-01-21_00h11.25.703,English_step1,2020.2.3,Win32,60,,,,,,,,,,,,,,,,,,left,0.935325,,,,,,,,0,12,12,7,1,,
,,,,,,,stim2/pa+10.wav,5fa379c756d0fe67b022823b,2021-01-21_00h11.25.703,English_step1,2020.2.3,Win32,60,,,,,,,,,,,,,,,,,,left,0.46833,,,,,,,,0,13,13,1,1,,
,,,,,,,stim2/pa+25.wav,5fa379c756d0fe67b022823b,2021-01-21_00h11.25.703,English_step1,2020.2.3,Win32,60,,,,,,,,,,,,,,,,,,left,0.38011,,,,,,,,0,14,14,4,1,,
,,,,,,,stim2/pa+15.wav,5fa379c756d0fe67b022823b,2021-01-21_00h11.25.703,English_step1,2020.2.3,Win32,60,,,,,,,,,,,,,,,,,,left,0.484875,,,,,,,,0,15,15,2,1,,
,,,,,,,stim2/pa+35.wav,5fa379c756d0fe67b022823b,2021-01-21_00h11.25.703,English_step1,2020.2.3,Win32,60,,,,,,,,,,,,,,,,,,left,0.450925,,,,,,,,0,16,16,6,1,,
,,,,,,,stim2/pa-25.wav,5fa379c756d0fe67b022823b,2021-01-21_00h11.25.703,English_step1,2020.2.3,Win32,60,,,,,,,,,,,,,,,,,,right,0.501455,,,,,,,,1,0,17,14,1,,
,,,,,,,stim2/pa+35.wav,5fa379c756d0fe67b022823b,2021-01-21_00h11.25.703,English_step1,2020.2.3,Win32,60,,,,,,,,,,,,,,,,,,left,0.85109,,,,,,,,1,1,18,6,1,,
,,,,,,,stim2/pa-20.wav,5fa379c756d0fe67b022823b,2021-01-21_00h11.25.703,English_step1,2020.2.3,Win32,60,,,,,,,,,,,,,,,,,,right,0.534995,,,,,,,,1,2,19,13,1,,
,,,,,,,stim2/pa+20.wav,5fa379c756d0fe67b022823b,2021-01-21_00h11.25.703,English_step1,2020.2.3,Win32,60,,,,,,,,,,,,,,,,,,left,0.70817,,,,,,,,1,3,20,3,1,,
,,,,,,,stim2/pa+10.wav,5fa379c756d0fe67b022823b,2021-01-21_00h11.25.703,English_step1,2020.2.3,Win32,60,,,,,,,,,,,,,,,,,,left,2.25075,,,,,,,,1,4,21,1,1,,
,,,,,,,stim2/pa+40.wav,5fa379c756d0fe67b022823b,2021-01-21_00h11.25.703,English_step1,2020.2.3,Win32,60,,,,,,,,,,,,,,,,,,left,1.68544,,,,,,,,1,5,22,7,1,,
,,,,,,,stim2/pa+15.wav,5fa379c756d0fe67b022823b,2021-01-21_00h11.25.703,English_step1,2020.2.3,Win32,60,,,,,,,,,,,,,,,,,,left,1.05657,,,,,,,,1,6,23,2,1,,
,,,,,,,stim2/pa+25.wav,5fa379c756d0fe67b022823b,2021-01-21_00h11.25.703,English_step1,2020.2.3,Win32,60,,,,,,,,,,,,,,,,,,left,0.575515,,,,,,,,1,7,24,4,1,,
,,,,,,,stim2/pa+05.wav,5fa379c756d0fe67b022823b,2021-01-21_00h11.25.703,English_step1,2020.2.3,Win32,60,,,,,,,,,,,,,,,,,,left,0.536015,,,,,,,,1,8,25,0,1,,
,,,,,,,stim2/pa-10.wav,5fa379c756d0fe67b022823b,2021-01-21_00h11.25.703,English_step1,2020.2.3,Win32,60,,,,,,,,,,,,,,,,,,right,0.63508,,,,,,,,1,9,26,11,1,,
,,,,,,,stim2/pa-30.wav,5fa379c756d0fe67b022823b,2021-01-21_00h11.25.703,English_step1,2020.2.3,Win32,60,,,,,,,,,,,,,,,,,,right,0.530505,,,,,,,,1,10,27,15,1,,
,,,,,,,stim2/pa+50.wav,5fa379c756d0fe67b022823b,2021-01-21_00h11.25.703,English_step1,2020.2.3,Win32,60,,,,,,,,,,,,,,,,,,left,1.67664,,,,,,,,1,11,28,9,1,,
,,,,,,,stim2/pa-05.wav,5fa379c756d0fe67b022823b,2021-01-21_00h11.25.703,English_step1,2020.2.3,Win32,60,,,,,,,,,,,,,,,,,,right,0.56797,,,,,,,,1,12,29,10,1,,
,,,,,,,stim2/pa-35.wav,5fa379c756d0fe67b022823b,2021-01-21_00h11.25.703,English_step1,2020.2.3,Win32,60,,,,,,,,,,,,,,,,,,right,0.506055,,,,,,,,1,13,30,16,1,,
,,,,,,,stim2/pa+30.wav,5fa379c756d0fe67b022823b,2021-01-21_00h11.25.703,English_step1,2020.2.3,Win32,60,,,,,,,,,,,,,,,,,,left,0.918095,,,,,,,,1,14,31,5,1,,
,,,,,,,stim2/pa+45.wav,5fa379c756d0fe67b022823b,2021-01-21_00h11.25.703,English_step1,2020.2.3,Win32,60,,,,,,,,,,,,,,,,,,left,0.68437,,,,,,,,1,15,32,8,1,,
,,,,,,,stim2/pa-15.wav,5fa379c756d0fe67b022823b,2021-01-21_00h11.25.703,English_step1,2020.2.3,Win32,60,,,,,,,,,,,,,,,,,,right,0.53516,,,,,,,,1,16,33,12,1,,
,,,,,,,,5fa379c756d0fe67b022823b,2021-01-21_00h11.25.703,English_step1,2020.2.3,Win32,60,,,,,,,,,,,,,,,,,,,,,,,,,,,,,,,,space,28.03237
