resp.keys,resp.rt,trials.thisRepN,trials.thisTrialN,trials.thisN,trials.thisIndex,trials.ran,stimuli,participant,date,expName,psychopyVersion,OS,frameRate,gotResponse.keys,gotResponse.rt,resp_2.keys,resp_2.rt,trials_2.thisRepN,trials_2.thisTrialN,trials_2.thisN,trials_2.thisIndex,trials_2.ran,key_resp_3.keys,key_resp_3.corr,key_resp_3.rt,trials_4.thisRepN,trials_4.thisTrialN,trials_4.thisN,trials_4.thisIndex,trials_4.ran,resp_3.keys,resp_3.rt,trials_3.thisRepN,trials_3.thisTrialN,trials_3.thisN,trials_3.thisIndex,trials_3.ran,key_resp_2.keys,key_resp_2.rt,trials_5.thisRepN,trials_5.thisTrialN,trials_5.thisN,trials_5.thisIndex,trials_5.ran,key_resp.keys,key_resp.rt
left,4.87116,0,0,0,0,1,stim/VC_01.wav,kim pilot,2020-11-08_19h58.24.318,English_step1,2020.2.3,MacIntel,60,,,,,,,,,,,,,,,,,,,,,,,,,,,,,,,,,
right,4.37315,0,1,1,1,1,stim/VC_11.wav,kim pilot,2020-11-08_19h58.24.318,English_step1,2020.2.3,MacIntel,60,,,,,,,,,,,,,,,,,,,,,,,,,,,,,,,,,
,,,,,,,stim/VC_04.wav,kim pilot,2020-11-08_19h58.24.318,English_step1,2020.2.3,MacIntel,60,space,7.06987,left,2.10542,0,0,0,3,1,,,,,,,,,,,,,,,,,,,,,,,,
,,,,,,,stim/VC_06.wav,kim pilot,2020-11-08_19h58.24.318,English_step1,2020.2.3,MacIntel,60,,,left,0.996895,0,1,1,5,1,,,,,,,,,,,,,,,,,,,,,,,,
,,,,,,,stim/VC_08.wav,kim pilot,2020-11-08_19h58.24.318,English_step1,2020.2.3,MacIntel,60,,,right,0.650975,0,2,2,7,1,,,,,,,,,,,,,,,,,,,,,,,,
,,,,,,,stim/VC_05.wav,kim pilot,2020-11-08_19h58.24.318,English_step1,2020.2.3,MacIntel,60,,,right,0.843725,0,3,3,4,1,,,,,,,,,,,,,,,,,,,,,,,,
,,,,,,,stim/VC_07.wav,kim pilot,2020-11-08_19h58.24.318,English_step1,2020.2.3,MacIntel,60,,,right,0.67552,0,4,4,6,1,,,,,,,,,,,,,,,,,,,,,,,,
,,,,,,,stim/VC_01.wav,kim pilot,2020-11-08_19h58.24.318,English_step1,2020.2.3,MacIntel,60,,,left,1.05173,0,5,5,0,1,,,,,,,,,,,,,,,,,,,,,,,,
,,,,,,,stim/VC_03.wav,kim pilot,2020-11-08_19h58.24.318,English_step1,2020.2.3,MacIntel,60,,,left,0.94266,0,6,6,2,1,,,,,,,,,,,,,,,,,,,,,,,,
,,,,,,,stim/VC_02.wav,kim pilot,2020-11-08_19h58.24.318,English_step1,2020.2.3,MacIntel,60,,,left,0.667115,0,7,7,1,1,,,,,,,,,,,,,,,,,,,,,,,,
,,,,,,,stim/VC_10.wav,kim pilot,2020-11-08_19h58.24.318,English_step1,2020.2.3,MacIntel,60,,,right,0.526735,0,8,8,9,1,,,,,,,,,,,,,,,,,,,,,,,,
,,,,,,,stim/VC_11.wav,kim pilot,2020-11-08_19h58.24.318,English_step1,2020.2.3,MacIntel,60,,,right,0.51745,0,9,9,10,1,,,,,,,,,,,,,,,,,,,,,,,,
,,,,,,,stim/VC_09.wav,kim pilot,2020-11-08_19h58.24.318,English_step1,2020.2.3,MacIntel,60,,,right,0.50792,0,10,10,8,1,,,,,,,,,,,,,,,,,,,,,,,,
,,,,,,,stim/VC_05.wav,kim pilot,2020-11-08_19h58.24.318,English_step1,2020.2.3,MacIntel,60,,,right,0.650425,1,0,11,4,1,,,,,,,,,,,,,,,,,,,,,,,,
,,,,,,,stim/VC_07.wav,kim pilot,2020-11-08_19h58.24.318,English_step1,2020.2.3,MacIntel,60,,,right,0.823785,1,1,12,6,1,,,,,,,,,,,,,,,,,,,,,,,,
,,,,,,,stim/VC_11.wav,kim pilot,2020-11-08_19h58.24.318,English_step1,2020.2.3,MacIntel,60,,,right,0.65224,1,2,13,10,1,,,,,,,,,,,,,,,,,,,,,,,,
,,,,,,,stim/VC_09.wav,kim pilot,2020-11-08_19h58.24.318,English_step1,2020.2.3,MacIntel,60,,,right,0.887905,1,3,14,8,1,,,,,,,,,,,,,,,,,,,,,,,,
,,,,,,,stim/VC_03.wav,kim pilot,2020-11-08_19h58.24.318,English_step1,2020.2.3,MacIntel,60,,,left,0.60404,1,4,15,2,1,,,,,,,,,,,,,,,,,,,,,,,,
,,,,,,,stim/VC_01.wav,kim pilot,2020-11-08_19h58.24.318,English_step1,2020.2.3,MacIntel,60,,,left,0.634315,1,5,16,0,1,,,,,,,,,,,,,,,,,,,,,,,,
,,,,,,,stim/VC_04.wav,kim pilot,2020-11-08_19h58.24.318,English_step1,2020.2.3,MacIntel,60,,,left,0.906375,1,6,17,3,1,,,,,,,,,,,,,,,,,,,,,,,,
,,,,,,,stim/VC_08.wav,kim pilot,2020-11-08_19h58.24.318,English_step1,2020.2.3,MacIntel,60,,,right,0.45709,1,7,18,7,1,,,,,,,,,,,,,,,,,,,,,,,,
,,,,,,,stim/VC_02.wav,kim pilot,2020-11-08_19h58.24.318,English_step1,2020.2.3,MacIntel,60,,,left,0.81829,1,8,19,1,1,,,,,,,,,,,,,,,,,,,,,,,,
,,,,,,,stim/VC_06.wav,kim pilot,2020-11-08_19h58.24.318,English_step1,2020.2.3,MacIntel,60,,,right,0.952575,1,9,20,5,1,,,,,,,,,,,,,,,,,,,,,,,,
,,,,,,,stim/VC_10.wav,kim pilot,2020-11-08_19h58.24.318,English_step1,2020.2.3,MacIntel,60,,,right,0.65279,1,10,21,9,1,,,,,,,,,,,,,,,,,,,,,,,,
,,,,,,,stim/VC_09.wav,kim pilot,2020-11-08_19h58.24.318,English_step1,2020.2.3,MacIntel,60,,,right,0.517665,2,0,22,8,1,,,,,,,,,,,,,,,,,,,,,,,,
,,,,,,,stim/VC_02.wav,kim pilot,2020-11-08_19h58.24.318,English_step1,2020.2.3,MacIntel,60,,,left,0.754025,2,1,23,1,1,,,,,,,,,,,,,,,,,,,,,,,,
,,,,,,,stim/VC_06.wav,kim pilot,2020-11-08_19h58.24.318,English_step1,2020.2.3,MacIntel,60,,,left,1.31861,2,2,24,5,1,,,,,,,,,,,,,,,,,,,,,,,,
,,,,,,,stim/VC_11.wav,kim pilot,2020-11-08_19h58.24.318,English_step1,2020.2.3,MacIntel,60,,,right,0.62692,2,3,25,10,1,,,,,,,,,,,,,,,,,,,,,,,,
,,,,,,,stim/VC_08.wav,kim pilot,2020-11-08_19h58.24.318,English_step1,2020.2.3,MacIntel,60,,,right,0.543315,2,4,26,7,1,,,,,,,,,,,,,,,,,,,,,,,,
,,,,,,,stim/VC_01.wav,kim pilot,2020-11-08_19h58.24.318,English_step1,2020.2.3,MacIntel,60,,,left,0.772025,2,5,27,0,1,,,,,,,,,,,,,,,,,,,,,,,,
,,,,,,,stim/VC_04.wav,kim pilot,2020-11-08_19h58.24.318,English_step1,2020.2.3,MacIntel,60,,,left,0.89331,2,6,28,3,1,,,,,,,,,,,,,,,,,,,,,,,,
,,,,,,,stim/VC_05.wav,kim pilot,2020-11-08_19h58.24.318,English_step1,2020.2.3,MacIntel,60,,,left,0.994315,2,7,29,4,1,,,,,,,,,,,,,,,,,,,,,,,,
,,,,,,,stim/VC_03.wav,kim pilot,2020-11-08_19h58.24.318,English_step1,2020.2.3,MacIntel,60,,,left,0.63627,2,8,30,2,1,,,,,,,,,,,,,,,,,,,,,,,,
,,,,,,,stim/VC_07.wav,kim pilot,2020-11-08_19h58.24.318,English_step1,2020.2.3,MacIntel,60,,,right,0.769355,2,9,31,6,1,,,,,,,,,,,,,,,,,,,,,,,,
,,,,,,,stim/VC_10.wav,kim pilot,2020-11-08_19h58.24.318,English_step1,2020.2.3,MacIntel,60,,,right,0.803985,2,10,32,9,1,,,,,,,,,,,,,,,,,,,,,,,,
,,,,,,,stim/VC_06.wav,kim pilot,2020-11-08_19h58.24.318,English_step1,2020.2.3,MacIntel,60,,,left,1.43713,,,,,,4,0,7.109445,0,0,0,5,1,,,,,,,,,,,,,,,,
,,,,,,,stim/VC_08.wav,kim pilot,2020-11-08_19h58.24.318,English_step1,2020.2.3,MacIntel,60,,,right,0.55399,,,,,,,,,0,1,1,7,1,,,,,,,,,,,,,,,,
,,,,,,,stim/VC_11.wav,kim pilot,2020-11-08_19h58.24.318,English_step1,2020.2.3,MacIntel,60,,,right,0.40897,,,,,,,,,0,2,2,10,1,,,,,,,,,,,,,,,,
,,,,,,,stim/VC_05.wav,kim pilot,2020-11-08_19h58.24.318,English_step1,2020.2.3,MacIntel,60,,,right,0.437915,,,,,,,,,0,3,3,4,1,,,,,,,,,,,,,,,,
,,,,,,,stim/VC_09.wav,kim pilot,2020-11-08_19h58.24.318,English_step1,2020.2.3,MacIntel,60,,,right,0.402105,,,,,,,,,0,4,4,8,1,,,,,,,,,,,,,,,,
,,,,,,,stim/VC_01.wav,kim pilot,2020-11-08_19h58.24.318,English_step1,2020.2.3,MacIntel,60,,,left,0.40977,,,,,,,,,0,5,5,0,1,,,,,,,,,,,,,,,,
,,,,,,,stim/VC_10.wav,kim pilot,2020-11-08_19h58.24.318,English_step1,2020.2.3,MacIntel,60,,,right,0.38491,,,,,,,,,0,6,6,9,1,,,,,,,,,,,,,,,,
,,,,,,,stim/VC_02.wav,kim pilot,2020-11-08_19h58.24.318,English_step1,2020.2.3,MacIntel,60,,,left,0.68766,,,,,,,,,0,7,7,1,1,,,,,,,,,,,,,,,,
,,,,,,,stim/VC_04.wav,kim pilot,2020-11-08_19h58.24.318,English_step1,2020.2.3,MacIntel,60,,,left,0.761505,,,,,,,,,0,8,8,3,1,,,,,,,,,,,,,,,,
,,,,,,,stim/VC_07.wav,kim pilot,2020-11-08_19h58.24.318,English_step1,2020.2.3,MacIntel,60,,,right,0.419395,,,,,,,,,0,9,9,6,1,,,,,,,,,,,,,,,,
,,,,,,,stim/VC_03.wav,kim pilot,2020-11-08_19h58.24.318,English_step1,2020.2.3,MacIntel,60,,,right,0.883645,,,,,,,,,0,10,10,2,1,,,,,,,,,,,,,,,,
,,,,,,,stim/VC_10.wav,kim pilot,2020-11-08_19h58.24.318,English_step1,2020.2.3,MacIntel,60,,,right,0.45755,,,,,,,,,1,0,11,9,1,,,,,,,,,,,,,,,,
,,,,,,,stim/VC_05.wav,kim pilot,2020-11-08_19h58.24.318,English_step1,2020.2.3,MacIntel,60,,,right,0.4847,,,,,,,,,1,1,12,4,1,,,,,,,,,,,,,,,,
,,,,,,,stim/VC_07.wav,kim pilot,2020-11-08_19h58.24.318,English_step1,2020.2.3,MacIntel,60,,,right,0.651095,,,,,,,,,1,2,13,6,1,,,,,,,,,,,,,,,,
,,,,,,,stim/VC_04.wav,kim pilot,2020-11-08_19h58.24.318,English_step1,2020.2.3,MacIntel,60,,,right,0.54214,,,,,,,,,1,3,14,3,1,,,,,,,,,,,,,,,,
,,,,,,,stim/VC_09.wav,kim pilot,2020-11-08_19h58.24.318,English_step1,2020.2.3,MacIntel,60,,,left,0.877695,,,,,,,,,1,4,15,8,1,,,,,,,,,,,,,,,,
,,,,,,,stim/VC_08.wav,kim pilot,2020-11-08_19h58.24.318,English_step1,2020.2.3,MacIntel,60,,,left,0.58662,,,,,,,,,1,5,16,7,1,,,,,,,,,,,,,,,,
,,,,,,,stim/VC_06.wav,kim pilot,2020-11-08_19h58.24.318,English_step1,2020.2.3,MacIntel,60,,,left,0.71741,,,,,,,,,1,6,17,5,1,,,,,,,,,,,,,,,,
,,,,,,,stim/VC_03.wav,kim pilot,2020-11-08_19h58.24.318,English_step1,2020.2.3,MacIntel,60,,,left,0.67075,,,,,,,,,1,7,18,2,1,,,,,,,,,,,,,,,,
,,,,,,,stim/VC_11.wav,kim pilot,2020-11-08_19h58.24.318,English_step1,2020.2.3,MacIntel,60,,,right,0.380175,,,,,,,,,1,8,19,10,1,,,,,,,,,,,,,,,,
,,,,,,,stim/VC_01.wav,kim pilot,2020-11-08_19h58.24.318,English_step1,2020.2.3,MacIntel,60,,,left,0.70048,,,,,,,,,1,9,20,0,1,,,,,,,,,,,,,,,,
,,,,,,,stim/VC_02.wav,kim pilot,2020-11-08_19h58.24.318,English_step1,2020.2.3,MacIntel,60,,,left,0.470755,,,,,,,,,1,10,21,1,1,,,,,,,,,,,,,,,,
,,,,,,,stim2/pa-30.wav,kim pilot,2020-11-08_19h58.24.318,English_step1,2020.2.3,MacIntel,60,,,,,,,,,,,,,,,,,,right,2.303475,0,0,0,15,1,,,,,,,,,
,,,,,,,stim2/pa-20.wav,kim pilot,2020-11-08_19h58.24.318,English_step1,2020.2.3,MacIntel,60,,,,,,,,,,,,,,,,,,right,0.550795,0,1,1,13,1,,,,,,,,,
,,,,,,,stim2/pa+40.wav,kim pilot,2020-11-08_19h58.24.318,English_step1,2020.2.3,MacIntel,60,,,,,,,,,,,,,,,,,,right,0.683625,0,2,2,7,1,,,,,,,,,
,,,,,,,stim2/pa+30.wav,kim pilot,2020-11-08_19h58.24.318,English_step1,2020.2.3,MacIntel,60,,,,,,,,,,,,,,,,,,right,2.07489,0,3,3,5,1,,,,,,,,,
,,,,,,,stim2/pa-25.wav,kim pilot,2020-11-08_19h58.24.318,English_step1,2020.2.3,MacIntel,60,,,,,,,,,,,,,,,,,,right,1.001725,0,4,4,14,1,,,,,,,,,
,,,,,,,stim2/pa+50.wav,kim pilot,2020-11-08_19h58.24.318,English_step1,2020.2.3,MacIntel,60,,,,,,,,,,,,,,,,,,left,1.35735,0,5,5,9,1,,,,,,,,,
,,,,,,,stim2/pa-15.wav,kim pilot,2020-11-08_19h58.24.318,English_step1,2020.2.3,MacIntel,60,,,,,,,,,,,,,,,,,,right,0.92168,0,6,6,12,1,,,,,,,,,
,,,,,,,stim2/pa+20.wav,kim pilot,2020-11-08_19h58.24.318,English_step1,2020.2.3,MacIntel,60,,,,,,,,,,,,,,,,,,left,1.122495,0,7,7,3,1,,,,,,,,,
,,,,,,,stim2/pa+05.wav,kim pilot,2020-11-08_19h58.24.318,English_step1,2020.2.3,MacIntel,60,,,,,,,,,,,,,,,,,,right,1.04488,0,8,8,0,1,,,,,,,,,
,,,,,,,stim2/pa+35.wav,kim pilot,2020-11-08_19h58.24.318,English_step1,2020.2.3,MacIntel,60,,,,,,,,,,,,,,,,,,right,0.974705,0,9,9,6,1,,,,,,,,,
,,,,,,,stim2/pa+10.wav,kim pilot,2020-11-08_19h58.24.318,English_step1,2020.2.3,MacIntel,60,,,,,,,,,,,,,,,,,,left,0.76719,0,10,10,1,1,,,,,,,,,
,,,,,,,stim2/pa+25.wav,kim pilot,2020-11-08_19h58.24.318,English_step1,2020.2.3,MacIntel,60,,,,,,,,,,,,,,,,,,right,0.632975,0,11,11,4,1,,,,,,,,,
,,,,,,,stim2/pa+15.wav,kim pilot,2020-11-08_19h58.24.318,English_step1,2020.2.3,MacIntel,60,,,,,,,,,,,,,,,,,,right,0.461545,0,12,12,2,1,,,,,,,,,
,,,,,,,stim2/pa-35.wav,kim pilot,2020-11-08_19h58.24.318,English_step1,2020.2.3,MacIntel,60,,,,,,,,,,,,,,,,,,right,0.567735,0,13,13,16,1,,,,,,,,,
,,,,,,,stim2/pa-10.wav,kim pilot,2020-11-08_19h58.24.318,English_step1,2020.2.3,MacIntel,60,,,,,,,,,,,,,,,,,,right,0.449795,0,14,14,11,1,,,,,,,,,
,,,,,,,stim2/pa+45.wav,kim pilot,2020-11-08_19h58.24.318,English_step1,2020.2.3,MacIntel,60,,,,,,,,,,,,,,,,,,right,0.50529,0,15,15,8,1,,,,,,,,,
,,,,,,,stim2/pa-05.wav,kim pilot,2020-11-08_19h58.24.318,English_step1,2020.2.3,MacIntel,60,,,,,,,,,,,,,,,,,,right,0.38317,0,16,16,10,1,,,,,,,,,
,,,,,,,stim2/pa+45.wav,kim pilot,2020-11-08_19h58.24.318,English_step1,2020.2.3,MacIntel,60,,,,,,,,,,,,,,,,,,right,0.391245,1,0,17,8,1,,,,,,,,,
,,,,,,,stim2/pa+50.wav,kim pilot,2020-11-08_19h58.24.318,English_step1,2020.2.3,MacIntel,60,,,,,,,,,,,,,,,,,,right,0.441445,1,1,18,9,1,,,,,,,,,
,,,,,,,stim2/pa-35.wav,kim pilot,2020-11-08_19h58.24.318,English_step1,2020.2.3,MacIntel,60,,,,,,,,,,,,,,,,,,right,0.387395,1,2,19,16,1,,,,,,,,,
,,,,,,,stim2/pa+30.wav,kim pilot,2020-11-08_19h58.24.318,English_step1,2020.2.3,MacIntel,60,,,,,,,,,,,,,,,,,,right,0.385555,1,3,20,5,1,,,,,,,,,
,,,,,,,stim2/pa-30.wav,kim pilot,2020-11-08_19h58.24.318,English_step1,2020.2.3,MacIntel,60,,,,,,,,,,,,,,,,,,right,0.71962,1,4,21,15,1,,,,,,,,,
,,,,,,,stim2/pa-25.wav,kim pilot,2020-11-08_19h58.24.318,English_step1,2020.2.3,MacIntel,60,,,,,,,,,,,,,,,,,,left,0.419075,1,5,22,14,1,,,,,,,,,
,,,,,,,stim2/pa-05.wav,kim pilot,2020-11-08_19h58.24.318,English_step1,2020.2.3,MacIntel,60,,,,,,,,,,,,,,,,,,left,0.445285,1,6,23,10,1,,,,,,,,,
,,,,,,,stim2/pa+15.wav,kim pilot,2020-11-08_19h58.24.318,English_step1,2020.2.3,MacIntel,60,,,,,,,,,,,,,,,,,,left,0.318495,1,7,24,2,1,,,,,,,,,
,,,,,,,stim2/pa-10.wav,kim pilot,2020-11-08_19h58.24.318,English_step1,2020.2.3,MacIntel,60,,,,,,,,,,,,,,,,,,left,0.301875,1,8,25,11,1,,,,,,,,,
,,,,,,,stim2/pa-15.wav,kim pilot,2020-11-08_19h58.24.318,English_step1,2020.2.3,MacIntel,60,,,,,,,,,,,,,,,,,,left,0.368125,1,9,26,12,1,,,,,,,,,
,,,,,,,stim2/pa+25.wav,kim pilot,2020-11-08_19h58.24.318,English_step1,2020.2.3,MacIntel,60,,,,,,,,,,,,,,,,,,right,0.640685,1,10,27,4,1,,,,,,,,,
,,,,,,,stim2/pa+35.wav,kim pilot,2020-11-08_19h58.24.318,English_step1,2020.2.3,MacIntel,60,,,,,,,,,,,,,,,,,,left,0.767745,1,11,28,6,1,,,,,,,,,
,,,,,,,stim2/pa+05.wav,kim pilot,2020-11-08_19h58.24.318,English_step1,2020.2.3,MacIntel,60,,,,,,,,,,,,,,,,,,right,0.250925,1,12,29,0,1,,,,,,,,,
,,,,,,,stim2/pa+20.wav,kim pilot,2020-11-08_19h58.24.318,English_step1,2020.2.3,MacIntel,60,,,,,,,,,,,,,,,,,,right,0.292255,1,13,30,3,1,,,,,,,,,
,,,,,,,stim2/pa+10.wav,kim pilot,2020-11-08_19h58.24.318,English_step1,2020.2.3,MacIntel,60,,,,,,,,,,,,,,,,,,right,0.310405,1,14,31,1,1,,,,,,,,,
,,,,,,,stim2/pa-20.wav,kim pilot,2020-11-08_19h58.24.318,English_step1,2020.2.3,MacIntel,60,,,,,,,,,,,,,,,,,,right,1.53603,1,15,32,13,1,,,,,,,,,
,,,,,,,stim2/pa+40.wav,kim pilot,2020-11-08_19h58.24.318,English_step1,2020.2.3,MacIntel,60,,,,,,,,,,,,,,,,,,right,0.60107,1,16,33,7,1,,,,,,,,,
,,,,,,,stim2/pa+05.wav,kim pilot,2020-11-08_19h58.24.318,English_step1,2020.2.3,MacIntel,60,,,,,,,,,,,,,,,,,,right,0.552425,2,0,34,0,1,,,,,,,,,
,,,,,,,stim2/pa+10.wav,kim pilot,2020-11-08_19h58.24.318,English_step1,2020.2.3,MacIntel,60,,,,,,,,,,,,,,,,,,right,0.501765,2,1,35,1,1,,,,,,,,,
,,,,,,,stim2/pa-05.wav,kim pilot,2020-11-08_19h58.24.318,English_step1,2020.2.3,MacIntel,60,,,,,,,,,,,,,,,,,,right,0.556365,2,2,36,10,1,,,,,,,,,
,,,,,,,stim2/pa-10.wav,kim pilot,2020-11-08_19h58.24.318,English_step1,2020.2.3,MacIntel,60,,,,,,,,,,,,,,,,,,right,0.51612,2,3,37,11,1,,,,,,,,,
,,,,,,,stim2/pa+20.wav,kim pilot,2020-11-08_19h58.24.318,English_step1,2020.2.3,MacIntel,60,,,,,,,,,,,,,,,,,,right,0.558485,2,4,38,3,1,,,,,,,,,
,,,,,,,stim2/pa+50.wav,kim pilot,2020-11-08_19h58.24.318,English_step1,2020.2.3,MacIntel,60,,,,,,,,,,,,,,,,,,right,0.500265,2,5,39,9,1,,,,,,,,,
,,,,,,,stim2/pa-20.wav,kim pilot,2020-11-08_19h58.24.318,English_step1,2020.2.3,MacIntel,60,,,,,,,,,,,,,,,,,,right,0.292445,2,6,40,13,1,,,,,,,,,
,,,,,,,stim2/pa-25.wav,kim pilot,2020-11-08_19h58.24.318,English_step1,2020.2.3,MacIntel,60,,,,,,,,,,,,,,,,,,right,0.337415,2,7,41,14,1,,,,,,,,,
,,,,,,,stim2/pa+30.wav,kim pilot,2020-11-08_19h58.24.318,English_step1,2020.2.3,MacIntel,60,,,,,,,,,,,,,,,,,,left,0.363315,2,8,42,5,1,,,,,,,,,
,,,,,,,stim2/pa-30.wav,kim pilot,2020-11-08_19h58.24.318,English_step1,2020.2.3,MacIntel,60,,,,,,,,,,,,,,,,,,left,0.284735,2,9,43,15,1,,,,,,,,,
,,,,,,,stim2/pa+45.wav,kim pilot,2020-11-08_19h58.24.318,English_step1,2020.2.3,MacIntel,60,,,,,,,,,,,,,,,,,,left,0.39927,2,10,44,8,1,,,,,,,,,
,,,,,,,stim2/pa+40.wav,kim pilot,2020-11-08_19h58.24.318,English_step1,2020.2.3,MacIntel,60,,,,,,,,,,,,,,,,,,left,0.503095,2,11,45,7,1,,,,,,,,,
,,,,,,,stim2/pa+35.wav,kim pilot,2020-11-08_19h58.24.318,English_step1,2020.2.3,MacIntel,60,,,,,,,,,,,,,,,,,,left,0.34076,2,12,46,6,1,,,,,,,,,
,,,,,,,stim2/pa-15.wav,kim pilot,2020-11-08_19h58.24.318,English_step1,2020.2.3,MacIntel,60,,,,,,,,,,,,,,,,,,left,0.31998,2,13,47,12,1,,,,,,,,,
,,,,,,,stim2/pa+15.wav,kim pilot,2020-11-08_19h58.24.318,English_step1,2020.2.3,MacIntel,60,,,,,,,,,,,,,,,,,,left,0.400175,2,14,48,2,1,,,,,,,,,
,,,,,,,stim2/pa-35.wav,kim pilot,2020-11-08_19h58.24.318,English_step1,2020.2.3,MacIntel,60,,,,,,,,,,,,,,,,,,left,0.30189,2,15,49,16,1,,,,,,,,,
,,,,,,,stim2/pa+25.wav,kim pilot,2020-11-08_19h58.24.318,English_step1,2020.2.3,MacIntel,60,,,,,,,,,,,,,,,,,,right,0.33764,2,16,50,4,1,,,,,,,,,
,,,,,,,stim2/pa+40.wav,kim pilot,2020-11-08_19h58.24.318,English_step1,2020.2.3,MacIntel,60,,,,,,,,,,,,,,,,,,left,0.96808,,,,,,q,2.47389,0,0,0,7,1,,
,,,,,,,stim2/pa+05.wav,kim pilot,2020-11-08_19h58.24.318,English_step1,2020.2.3,MacIntel,60,,,,,,,,,,,,,,,,,,left,0.650715,,,,,,,,0,1,1,0,1,,
,,,,,,,stim2/pa-10.wav,kim pilot,2020-11-08_19h58.24.318,English_step1,2020.2.3,MacIntel,60,,,,,,,,,,,,,,,,,,left,0.590715,,,,,,,,0,2,2,11,1,,
,,,,,,,stim2/pa-15.wav,kim pilot,2020-11-08_19h58.24.318,English_step1,2020.2.3,MacIntel,60,,,,,,,,,,,,,,,,,,left,0.53435,,,,,,,,0,3,3,12,1,,
,,,,,,,stim2/pa-25.wav,kim pilot,2020-11-08_19h58.24.318,English_step1,2020.2.3,MacIntel,60,,,,,,,,,,,,,,,,,,left,0.567125,,,,,,,,0,4,4,14,1,,
,,,,,,,stim2/pa-30.wav,kim pilot,2020-11-08_19h58.24.318,English_step1,2020.2.3,MacIntel,60,,,,,,,,,,,,,,,,,,left,0.60012,,,,,,,,0,5,5,15,1,,
,,,,,,,stim2/pa+10.wav,kim pilot,2020-11-08_19h58.24.318,English_step1,2020.2.3,MacIntel,60,,,,,,,,,,,,,,,,,,left,0.466035,,,,,,,,0,6,6,1,1,,
,,,,,,,stim2/pa+25.wav,kim pilot,2020-11-08_19h58.24.318,English_step1,2020.2.3,MacIntel,60,,,,,,,,,,,,,,,,,,right,0.43327,,,,,,,,0,7,7,4,1,,
,,,,,,,stim2/pa+35.wav,kim pilot,2020-11-08_19h58.24.318,English_step1,2020.2.3,MacIntel,60,,,,,,,,,,,,,,,,,,right,0.50159,,,,,,,,0,8,8,6,1,,
,,,,,,,stim2/pa+50.wav,kim pilot,2020-11-08_19h58.24.318,English_step1,2020.2.3,MacIntel,60,,,,,,,,,,,,,,,,,,right,0.350635,,,,,,,,0,9,9,9,1,,
,,,,,,,stim2/pa-35.wav,kim pilot,2020-11-08_19h58.24.318,English_step1,2020.2.3,MacIntel,60,,,,,,,,,,,,,,,,,,right,0.34934,,,,,,,,0,10,10,16,1,,
,,,,,,,stim2/pa+20.wav,kim pilot,2020-11-08_19h58.24.318,English_step1,2020.2.3,MacIntel,60,,,,,,,,,,,,,,,,,,right,0.38838,,,,,,,,0,11,11,3,1,,
,,,,,,,stim2/pa+15.wav,kim pilot,2020-11-08_19h58.24.318,English_step1,2020.2.3,MacIntel,60,,,,,,,,,,,,,,,,,,right,0.549795,,,,,,,,0,12,12,2,1,,
,,,,,,,stim2/pa+45.wav,kim pilot,2020-11-08_19h58.24.318,English_step1,2020.2.3,MacIntel,60,,,,,,,,,,,,,,,,,,right,0.90505,,,,,,,,0,13,13,8,1,,
,,,,,,,stim2/pa-05.wav,kim pilot,2020-11-08_19h58.24.318,English_step1,2020.2.3,MacIntel,60,,,,,,,,,,,,,,,,,,right,0.845575,,,,,,,,0,14,14,10,1,,
,,,,,,,stim2/pa+30.wav,kim pilot,2020-11-08_19h58.24.318,English_step1,2020.2.3,MacIntel,60,,,,,,,,,,,,,,,,,,left,1.112605,,,,,,,,0,15,15,5,1,,
,,,,,,,stim2/pa-20.wav,kim pilot,2020-11-08_19h58.24.318,English_step1,2020.2.3,MacIntel,60,,,,,,,,,,,,,,,,,,right,1.49859,,,,,,,,0,16,16,13,1,,
,,,,,,,stim2/pa+10.wav,kim pilot,2020-11-08_19h58.24.318,English_step1,2020.2.3,MacIntel,60,,,,,,,,,,,,,,,,,,right,0.95314,,,,,,,,1,0,17,1,1,,
,,,,,,,stim2/pa-30.wav,kim pilot,2020-11-08_19h58.24.318,English_step1,2020.2.3,MacIntel,60,,,,,,,,,,,,,,,,,,right,0.45267,,,,,,,,1,1,18,15,1,,
,,,,,,,stim2/pa+25.wav,kim pilot,2020-11-08_19h58.24.318,English_step1,2020.2.3,MacIntel,60,,,,,,,,,,,,,,,,,,right,0.417265,,,,,,,,1,2,19,4,1,,
,,,,,,,stim2/pa-15.wav,kim pilot,2020-11-08_19h58.24.318,English_step1,2020.2.3,MacIntel,60,,,,,,,,,,,,,,,,,,right,1.0192,,,,,,,,1,3,20,12,1,,
,,,,,,,stim2/pa+15.wav,kim pilot,2020-11-08_19h58.24.318,English_step1,2020.2.3,MacIntel,60,,,,,,,,,,,,,,,,,,right,0.68997,,,,,,,,1,4,21,2,1,,
,,,,,,,stim2/pa-20.wav,kim pilot,2020-11-08_19h58.24.318,English_step1,2020.2.3,MacIntel,60,,,,,,,,,,,,,,,,,,right,0.52759,,,,,,,,1,5,22,13,1,,
,,,,,,,stim2/pa+40.wav,kim pilot,2020-11-08_19h58.24.318,English_step1,2020.2.3,MacIntel,60,,,,,,,,,,,,,,,,,,right,0.250395,,,,,,,,1,6,23,7,1,,
,,,,,,,stim2/pa-05.wav,kim pilot,2020-11-08_19h58.24.318,English_step1,2020.2.3,MacIntel,60,,,,,,,,,,,,,,,,,,right,0.57112,,,,,,,,1,7,24,10,1,,
,,,,,,,stim2/pa+50.wav,kim pilot,2020-11-08_19h58.24.318,English_step1,2020.2.3,MacIntel,60,,,,,,,,,,,,,,,,,,right,0.492135,,,,,,,,1,8,25,9,1,,
,,,,,,,stim2/pa-25.wav,kim pilot,2020-11-08_19h58.24.318,English_step1,2020.2.3,MacIntel,60,,,,,,,,,,,,,,,,,,right,0.501175,,,,,,,,1,9,26,14,1,,
,,,,,,,stim2/pa-35.wav,kim pilot,2020-11-08_19h58.24.318,English_step1,2020.2.3,MacIntel,60,,,,,,,,,,,,,,,,,,right,0.619395,,,,,,,,1,10,27,16,1,,
,,,,,,,stim2/pa+05.wav,kim pilot,2020-11-08_19h58.24.318,English_step1,2020.2.3,MacIntel,60,,,,,,,,,,,,,,,,,,right,0.2704,,,,,,,,1,11,28,0,1,,
,,,,,,,stim2/pa+30.wav,kim pilot,2020-11-08_19h58.24.318,English_step1,2020.2.3,MacIntel,60,,,,,,,,,,,,,,,,,,right,0.57004,,,,,,,,1,12,29,5,1,,
,,,,,,,stim2/pa+35.wav,kim pilot,2020-11-08_19h58.24.318,English_step1,2020.2.3,MacIntel,60,,,,,,,,,,,,,,,,,,right,0.48555,,,,,,,,1,13,30,6,1,,
,,,,,,,stim2/pa+45.wav,kim pilot,2020-11-08_19h58.24.318,English_step1,2020.2.3,MacIntel,60,,,,,,,,,,,,,,,,,,right,0.253295,,,,,,,,1,14,31,8,1,,
,,,,,,,stim2/pa-10.wav,kim pilot,2020-11-08_19h58.24.318,English_step1,2020.2.3,MacIntel,60,,,,,,,,,,,,,,,,,,right,0.560745,,,,,,,,1,15,32,11,1,,
,,,,,,,stim2/pa+20.wav,kim pilot,2020-11-08_19h58.24.318,English_step1,2020.2.3,MacIntel,60,,,,,,,,,,,,,,,,,,right,0.474655,,,,,,,,1,16,33,3,1,,
,,,,,,,,kim pilot,2020-11-08_19h58.24.318,English_step1,2020.2.3,MacIntel,60,,,,,,,,,,,,,,,,,,,,,,,,,,,,,,,,space,6.94707
