resp.keys,resp.rt,trials.thisRepN,trials.thisTrialN,trials.thisN,trials.thisIndex,trials.ran,stimuli,participant,date,expName,psychopyVersion,OS,frameRate,gotResponse.keys,gotResponse.rt,resp_2.keys,resp_2.rt,trials_2.thisRepN,trials_2.thisTrialN,trials_2.thisN,trials_2.thisIndex,trials_2.ran,key_resp_3.keys,key_resp_3.rt,trials_4.thisRepN,trials_4.thisTrialN,trials_4.thisN,trials_4.thisIndex,trials_4.ran,resp_3.keys,resp_3.rt,trials_3.thisRepN,trials_3.thisTrialN,trials_3.thisN,trials_3.thisIndex,trials_3.ran,key_resp_2.keys,key_resp_2.rt,trials_5.thisRepN,trials_5.thisTrialN,trials_5.thisN,trials_5.thisIndex,trials_5.ran,key_resp.keys,key_resp.rt
left,1.172095,0,0,0,0,1,stim/VC_01.wav,5b77869d338a9300015468cf,2021-01-20_16h01.33.277,Spanish_step2,2020.2.3,Win32,60,,,,,,,,,,,,,,,,,,,,,,,,,,,,,,,,
right,0.618115,0,1,1,1,1,stim/VC_11.wav,5b77869d338a9300015468cf,2021-01-20_16h01.33.277,Spanish_step2,2020.2.3,Win32,60,,,,,,,,,,,,,,,,,,,,,,,,,,,,,,,,
,,,,,,,stim/VC_03.wav,5b77869d338a9300015468cf,2021-01-20_16h01.33.277,Spanish_step2,2020.2.3,Win32,60,space,6.966285,left,0.75065,0,0,0,2,1,,,,,,,,,,,,,,,,,,,,,,,
,,,,,,,stim/VC_05.wav,5b77869d338a9300015468cf,2021-01-20_16h01.33.277,Spanish_step2,2020.2.3,Win32,60,,,left,0.525705,0,1,1,4,1,,,,,,,,,,,,,,,,,,,,,,,
,,,,,,,stim/VC_07.wav,5b77869d338a9300015468cf,2021-01-20_16h01.33.277,Spanish_step2,2020.2.3,Win32,60,,,right,0.81139,0,2,2,6,1,,,,,,,,,,,,,,,,,,,,,,,
,,,,,,,stim/VC_06.wav,5b77869d338a9300015468cf,2021-01-20_16h01.33.277,Spanish_step2,2020.2.3,Win32,60,,,right,0.70657,0,3,3,5,1,,,,,,,,,,,,,,,,,,,,,,,
,,,,,,,stim/VC_04.wav,5b77869d338a9300015468cf,2021-01-20_16h01.33.277,Spanish_step2,2020.2.3,Win32,60,,,left,0.612875,0,4,4,3,1,,,,,,,,,,,,,,,,,,,,,,,
,,,,,,,stim/VC_01.wav,5b77869d338a9300015468cf,2021-01-20_16h01.33.277,Spanish_step2,2020.2.3,Win32,60,,,left,0.816975,0,5,5,0,1,,,,,,,,,,,,,,,,,,,,,,,
,,,,,,,stim/VC_10.wav,5b77869d338a9300015468cf,2021-01-20_16h01.33.277,Spanish_step2,2020.2.3,Win32,60,,,right,0.533685,0,6,6,9,1,,,,,,,,,,,,,,,,,,,,,,,
,,,,,,,stim/VC_11.wav,5b77869d338a9300015468cf,2021-01-20_16h01.33.277,Spanish_step2,2020.2.3,Win32,60,,,right,0.48737,0,7,7,10,1,,,,,,,,,,,,,,,,,,,,,,,
,,,,,,,stim/VC_08.wav,5b77869d338a9300015468cf,2021-01-20_16h01.33.277,Spanish_step2,2020.2.3,Win32,60,,,right,0.471255,0,8,8,7,1,,,,,,,,,,,,,,,,,,,,,,,
,,,,,,,stim/VC_09.wav,5b77869d338a9300015468cf,2021-01-20_16h01.33.277,Spanish_step2,2020.2.3,Win32,60,,,right,0.41106,0,9,9,8,1,,,,,,,,,,,,,,,,,,,,,,,
,,,,,,,stim/VC_02.wav,5b77869d338a9300015468cf,2021-01-20_16h01.33.277,Spanish_step2,2020.2.3,Win32,60,,,left,0.601605,0,10,10,1,1,,,,,,,,,,,,,,,,,,,,,,,
,,,,,,,stim/VC_07.wav,5b77869d338a9300015468cf,2021-01-20_16h01.33.277,Spanish_step2,2020.2.3,Win32,60,,,right,0.67718,1,0,11,6,1,,,,,,,,,,,,,,,,,,,,,,,
,,,,,,,stim/VC_09.wav,5b77869d338a9300015468cf,2021-01-20_16h01.33.277,Spanish_step2,2020.2.3,Win32,60,,,right,0.44083,1,1,12,8,1,,,,,,,,,,,,,,,,,,,,,,,
,,,,,,,stim/VC_04.wav,5b77869d338a9300015468cf,2021-01-20_16h01.33.277,Spanish_step2,2020.2.3,Win32,60,,,left,0.59457,1,2,13,3,1,,,,,,,,,,,,,,,,,,,,,,,
,,,,,,,stim/VC_08.wav,5b77869d338a9300015468cf,2021-01-20_16h01.33.277,Spanish_step2,2020.2.3,Win32,60,,,right,0.56701,1,3,14,7,1,,,,,,,,,,,,,,,,,,,,,,,
,,,,,,,stim/VC_06.wav,5b77869d338a9300015468cf,2021-01-20_16h01.33.277,Spanish_step2,2020.2.3,Win32,60,,,right,0.74161,1,4,15,5,1,,,,,,,,,,,,,,,,,,,,,,,
,,,,,,,stim/VC_10.wav,5b77869d338a9300015468cf,2021-01-20_16h01.33.277,Spanish_step2,2020.2.3,Win32,60,,,right,0.52319,1,5,16,9,1,,,,,,,,,,,,,,,,,,,,,,,
,,,,,,,stim/VC_05.wav,5b77869d338a9300015468cf,2021-01-20_16h01.33.277,Spanish_step2,2020.2.3,Win32,60,,,left,0.58586,1,6,17,4,1,,,,,,,,,,,,,,,,,,,,,,,
,,,,,,,stim/VC_02.wav,5b77869d338a9300015468cf,2021-01-20_16h01.33.277,Spanish_step2,2020.2.3,Win32,60,,,left,0.62545,1,7,18,1,1,,,,,,,,,,,,,,,,,,,,,,,
,,,,,,,stim/VC_11.wav,5b77869d338a9300015468cf,2021-01-20_16h01.33.277,Spanish_step2,2020.2.3,Win32,60,,,right,0.500225,1,8,19,10,1,,,,,,,,,,,,,,,,,,,,,,,
,,,,,,,stim/VC_03.wav,5b77869d338a9300015468cf,2021-01-20_16h01.33.277,Spanish_step2,2020.2.3,Win32,60,,,left,0.869905,1,9,20,2,1,,,,,,,,,,,,,,,,,,,,,,,
,,,,,,,stim/VC_01.wav,5b77869d338a9300015468cf,2021-01-20_16h01.33.277,Spanish_step2,2020.2.3,Win32,60,,,left,0.614115,1,10,21,0,1,,,,,,,,,,,,,,,,,,,,,,,
,,,,,,,stim/VC_04.wav,5b77869d338a9300015468cf,2021-01-20_16h01.33.277,Spanish_step2,2020.2.3,Win32,60,,,left,0.486145,2,0,22,3,1,,,,,,,,,,,,,,,,,,,,,,,
,,,,,,,stim/VC_06.wav,5b77869d338a9300015468cf,2021-01-20_16h01.33.277,Spanish_step2,2020.2.3,Win32,60,,,right,0.687455,2,1,23,5,1,,,,,,,,,,,,,,,,,,,,,,,
,,,,,,,stim/VC_05.wav,5b77869d338a9300015468cf,2021-01-20_16h01.33.277,Spanish_step2,2020.2.3,Win32,60,,,right,0.783785,2,2,24,4,1,,,,,,,,,,,,,,,,,,,,,,,
,,,,,,,stim/VC_08.wav,5b77869d338a9300015468cf,2021-01-20_16h01.33.277,Spanish_step2,2020.2.3,Win32,60,,,right,0.534485,2,3,25,7,1,,,,,,,,,,,,,,,,,,,,,,,
,,,,,,,stim/VC_10.wav,5b77869d338a9300015468cf,2021-01-20_16h01.33.277,Spanish_step2,2020.2.3,Win32,60,,,right,0.57956,2,4,26,9,1,,,,,,,,,,,,,,,,,,,,,,,
,,,,,,,stim/VC_03.wav,5b77869d338a9300015468cf,2021-01-20_16h01.33.277,Spanish_step2,2020.2.3,Win32,60,,,left,0.544795,2,5,27,2,1,,,,,,,,,,,,,,,,,,,,,,,
,,,,,,,stim/VC_02.wav,5b77869d338a9300015468cf,2021-01-20_16h01.33.277,Spanish_step2,2020.2.3,Win32,60,,,left,0.58351,2,6,28,1,1,,,,,,,,,,,,,,,,,,,,,,,
,,,,,,,stim/VC_07.wav,5b77869d338a9300015468cf,2021-01-20_16h01.33.277,Spanish_step2,2020.2.3,Win32,60,,,right,0.584895,2,7,29,6,1,,,,,,,,,,,,,,,,,,,,,,,
,,,,,,,stim/VC_01.wav,5b77869d338a9300015468cf,2021-01-20_16h01.33.277,Spanish_step2,2020.2.3,Win32,60,,,left,0.577015,2,8,30,0,1,,,,,,,,,,,,,,,,,,,,,,,
,,,,,,,stim/VC_11.wav,5b77869d338a9300015468cf,2021-01-20_16h01.33.277,Spanish_step2,2020.2.3,Win32,60,,,right,0.48372,2,9,31,10,1,,,,,,,,,,,,,,,,,,,,,,,
,,,,,,,stim/VC_09.wav,5b77869d338a9300015468cf,2021-01-20_16h01.33.277,Spanish_step2,2020.2.3,Win32,60,,,right,0.488055,2,10,32,8,1,,,,,,,,,,,,,,,,,,,,,,,
,,,,,,,stim/VC_10.wav,5b77869d338a9300015468cf,2021-01-20_16h01.33.277,Spanish_step2,2020.2.3,Win32,60,,,right,0.721475,,,,,,7,3.51152,0,0,0,9,1,,,,,,,,,,,,,,,,
,,,,,,,stim/VC_06.wav,5b77869d338a9300015468cf,2021-01-20_16h01.33.277,Spanish_step2,2020.2.3,Win32,60,,,right,0.83374,,,,,,,,0,1,1,5,1,,,,,,,,,,,,,,,,
,,,,,,,stim/VC_07.wav,5b77869d338a9300015468cf,2021-01-20_16h01.33.277,Spanish_step2,2020.2.3,Win32,60,,,right,0.750925,,,,,,,,0,2,2,6,1,,,,,,,,,,,,,,,,
,,,,,,,stim/VC_01.wav,5b77869d338a9300015468cf,2021-01-20_16h01.33.277,Spanish_step2,2020.2.3,Win32,60,,,left,0.555665,,,,,,,,0,3,3,0,1,,,,,,,,,,,,,,,,
,,,,,,,stim/VC_11.wav,5b77869d338a9300015468cf,2021-01-20_16h01.33.277,Spanish_step2,2020.2.3,Win32,60,,,right,0.54525,,,,,,,,0,4,4,10,1,,,,,,,,,,,,,,,,
,,,,,,,stim/VC_04.wav,5b77869d338a9300015468cf,2021-01-20_16h01.33.277,Spanish_step2,2020.2.3,Win32,60,,,left,1.07528,,,,,,,,0,5,5,3,1,,,,,,,,,,,,,,,,
,,,,,,,stim/VC_09.wav,5b77869d338a9300015468cf,2021-01-20_16h01.33.277,Spanish_step2,2020.2.3,Win32,60,,,right,0.626965,,,,,,,,0,6,6,8,1,,,,,,,,,,,,,,,,
,,,,,,,stim/VC_05.wav,5b77869d338a9300015468cf,2021-01-20_16h01.33.277,Spanish_step2,2020.2.3,Win32,60,,,left,0.934105,,,,,,,,0,7,7,4,1,,,,,,,,,,,,,,,,
,,,,,,,stim/VC_08.wav,5b77869d338a9300015468cf,2021-01-20_16h01.33.277,Spanish_step2,2020.2.3,Win32,60,,,right,0.61555,,,,,,,,0,8,8,7,1,,,,,,,,,,,,,,,,
,,,,,,,stim/VC_02.wav,5b77869d338a9300015468cf,2021-01-20_16h01.33.277,Spanish_step2,2020.2.3,Win32,60,,,left,0.61986,,,,,,,,0,9,9,1,1,,,,,,,,,,,,,,,,
,,,,,,,stim/VC_03.wav,5b77869d338a9300015468cf,2021-01-20_16h01.33.277,Spanish_step2,2020.2.3,Win32,60,,,left,0.49384,,,,,,,,0,10,10,2,1,,,,,,,,,,,,,,,,
,,,,,,,stim/VC_06.wav,5b77869d338a9300015468cf,2021-01-20_16h01.33.277,Spanish_step2,2020.2.3,Win32,60,,,right,0.621365,,,,,,,,1,0,11,5,1,,,,,,,,,,,,,,,,
,,,,,,,stim/VC_07.wav,5b77869d338a9300015468cf,2021-01-20_16h01.33.277,Spanish_step2,2020.2.3,Win32,60,,,right,0.52337,,,,,,,,1,1,12,6,1,,,,,,,,,,,,,,,,
,,,,,,,stim/VC_02.wav,5b77869d338a9300015468cf,2021-01-20_16h01.33.277,Spanish_step2,2020.2.3,Win32,60,,,left,0.545295,,,,,,,,1,2,13,1,1,,,,,,,,,,,,,,,,
,,,,,,,stim/VC_09.wav,5b77869d338a9300015468cf,2021-01-20_16h01.33.277,Spanish_step2,2020.2.3,Win32,60,,,right,0.441405,,,,,,,,1,3,14,8,1,,,,,,,,,,,,,,,,
,,,,,,,stim/VC_01.wav,5b77869d338a9300015468cf,2021-01-20_16h01.33.277,Spanish_step2,2020.2.3,Win32,60,,,left,0.566905,,,,,,,,1,4,15,0,1,,,,,,,,,,,,,,,,
,,,,,,,stim/VC_11.wav,5b77869d338a9300015468cf,2021-01-20_16h01.33.277,Spanish_step2,2020.2.3,Win32,60,,,right,0.536575,,,,,,,,1,5,16,10,1,,,,,,,,,,,,,,,,
,,,,,,,stim/VC_04.wav,5b77869d338a9300015468cf,2021-01-20_16h01.33.277,Spanish_step2,2020.2.3,Win32,60,,,left,0.867075,,,,,,,,1,6,17,3,1,,,,,,,,,,,,,,,,
,,,,,,,stim/VC_03.wav,5b77869d338a9300015468cf,2021-01-20_16h01.33.277,Spanish_step2,2020.2.3,Win32,60,,,left,0.630585,,,,,,,,1,7,18,2,1,,,,,,,,,,,,,,,,
,,,,,,,stim/VC_08.wav,5b77869d338a9300015468cf,2021-01-20_16h01.33.277,Spanish_step2,2020.2.3,Win32,60,,,right,0.561375,,,,,,,,1,8,19,7,1,,,,,,,,,,,,,,,,
,,,,,,,stim/VC_10.wav,5b77869d338a9300015468cf,2021-01-20_16h01.33.277,Spanish_step2,2020.2.3,Win32,60,,,right,0.569655,,,,,,,,1,9,20,9,1,,,,,,,,,,,,,,,,
,,,,,,,stim/VC_05.wav,5b77869d338a9300015468cf,2021-01-20_16h01.33.277,Spanish_step2,2020.2.3,Win32,60,,,right,1.2297,,,,,,,,1,10,21,4,1,,,,,,,,,,,,,,,,
,,,,,,,stim2/pa-30.wav,5b77869d338a9300015468cf,2021-01-20_16h01.33.277,Spanish_step2,2020.2.3,Win32,60,,,,,,,,,,,,,,,,,right,1.29251,0,0,0,15,1,,,,,,,,,
,,,,,,,stim2/pa+40.wav,5b77869d338a9300015468cf,2021-01-20_16h01.33.277,Spanish_step2,2020.2.3,Win32,60,,,,,,,,,,,,,,,,,left,0.789465,0,1,1,7,1,,,,,,,,,
,,,,,,,stim2/pa+35.wav,5b77869d338a9300015468cf,2021-01-20_16h01.33.277,Spanish_step2,2020.2.3,Win32,60,,,,,,,,,,,,,,,,,left,0.68449,0,2,2,6,1,,,,,,,,,
,,,,,,,stim2/pa+30.wav,5b77869d338a9300015468cf,2021-01-20_16h01.33.277,Spanish_step2,2020.2.3,Win32,60,,,,,,,,,,,,,,,,,left,0.623505,0,3,3,5,1,,,,,,,,,
,,,,,,,stim2/pa-20.wav,5b77869d338a9300015468cf,2021-01-20_16h01.33.277,Spanish_step2,2020.2.3,Win32,60,,,,,,,,,,,,,,,,,right,0.397575,0,4,4,13,1,,,,,,,,,
,,,,,,,stim2/pa+50.wav,5b77869d338a9300015468cf,2021-01-20_16h01.33.277,Spanish_step2,2020.2.3,Win32,60,,,,,,,,,,,,,,,,,left,0.47781,0,5,5,9,1,,,,,,,,,
,,,,,,,stim2/pa-05.wav,5b77869d338a9300015468cf,2021-01-20_16h01.33.277,Spanish_step2,2020.2.3,Win32,60,,,,,,,,,,,,,,,,,left,0.72534,0,6,6,10,1,,,,,,,,,
,,,,,,,stim2/pa-35.wav,5b77869d338a9300015468cf,2021-01-20_16h01.33.277,Spanish_step2,2020.2.3,Win32,60,,,,,,,,,,,,,,,,,right,0.400505,0,7,7,16,1,,,,,,,,,
,,,,,,,stim2/pa+45.wav,5b77869d338a9300015468cf,2021-01-20_16h01.33.277,Spanish_step2,2020.2.3,Win32,60,,,,,,,,,,,,,,,,,left,0.457725,0,8,8,8,1,,,,,,,,,
,,,,,,,stim2/pa+05.wav,5b77869d338a9300015468cf,2021-01-20_16h01.33.277,Spanish_step2,2020.2.3,Win32,60,,,,,,,,,,,,,,,,,left,0.471595,0,9,9,0,1,,,,,,,,,
,,,,,,,stim2/pa-10.wav,5b77869d338a9300015468cf,2021-01-20_16h01.33.277,Spanish_step2,2020.2.3,Win32,60,,,,,,,,,,,,,,,,,right,0.451595,0,10,10,11,1,,,,,,,,,
,,,,,,,stim2/pa+15.wav,5b77869d338a9300015468cf,2021-01-20_16h01.33.277,Spanish_step2,2020.2.3,Win32,60,,,,,,,,,,,,,,,,,left,0.460995,0,11,11,2,1,,,,,,,,,
,,,,,,,stim2/pa-15.wav,5b77869d338a9300015468cf,2021-01-20_16h01.33.277,Spanish_step2,2020.2.3,Win32,60,,,,,,,,,,,,,,,,,right,0.400545,0,12,12,12,1,,,,,,,,,
,,,,,,,stim2/pa+25.wav,5b77869d338a9300015468cf,2021-01-20_16h01.33.277,Spanish_step2,2020.2.3,Win32,60,,,,,,,,,,,,,,,,,left,0.42241,0,13,13,4,1,,,,,,,,,
,,,,,,,stim2/pa-25.wav,5b77869d338a9300015468cf,2021-01-20_16h01.33.277,Spanish_step2,2020.2.3,Win32,60,,,,,,,,,,,,,,,,,right,0.46939,0,14,14,14,1,,,,,,,,,
,,,,,,,stim2/pa+10.wav,5b77869d338a9300015468cf,2021-01-20_16h01.33.277,Spanish_step2,2020.2.3,Win32,60,,,,,,,,,,,,,,,,,left,0.53357,0,15,15,1,1,,,,,,,,,
,,,,,,,stim2/pa+20.wav,5b77869d338a9300015468cf,2021-01-20_16h01.33.277,Spanish_step2,2020.2.3,Win32,60,,,,,,,,,,,,,,,,,left,0.44378,0,16,16,3,1,,,,,,,,,
,,,,,,,stim2/pa+05.wav,5b77869d338a9300015468cf,2021-01-20_16h01.33.277,Spanish_step2,2020.2.3,Win32,60,,,,,,,,,,,,,,,,,left,0.593465,1,0,17,0,1,,,,,,,,,
,,,,,,,stim2/pa+25.wav,5b77869d338a9300015468cf,2021-01-20_16h01.33.277,Spanish_step2,2020.2.3,Win32,60,,,,,,,,,,,,,,,,,left,0.488425,1,1,18,4,1,,,,,,,,,
,,,,,,,stim2/pa+10.wav,5b77869d338a9300015468cf,2021-01-20_16h01.33.277,Spanish_step2,2020.2.3,Win32,60,,,,,,,,,,,,,,,,,right,0.680405,1,2,19,1,1,,,,,,,,,
,,,,,,,stim2/pa+40.wav,5b77869d338a9300015468cf,2021-01-20_16h01.33.277,Spanish_step2,2020.2.3,Win32,60,,,,,,,,,,,,,,,,,left,0.665825,1,3,20,7,1,,,,,,,,,
,,,,,,,stim2/pa-05.wav,5b77869d338a9300015468cf,2021-01-20_16h01.33.277,Spanish_step2,2020.2.3,Win32,60,,,,,,,,,,,,,,,,,right,0.55666,1,4,21,10,1,,,,,,,,,
,,,,,,,stim2/pa+45.wav,5b77869d338a9300015468cf,2021-01-20_16h01.33.277,Spanish_step2,2020.2.3,Win32,60,,,,,,,,,,,,,,,,,left,0.505105,1,5,22,8,1,,,,,,,,,
,,,,,,,stim2/pa-10.wav,5b77869d338a9300015468cf,2021-01-20_16h01.33.277,Spanish_step2,2020.2.3,Win32,60,,,,,,,,,,,,,,,,,right,0.64339,1,6,23,11,1,,,,,,,,,
,,,,,,,stim2/pa+30.wav,5b77869d338a9300015468cf,2021-01-20_16h01.33.277,Spanish_step2,2020.2.3,Win32,60,,,,,,,,,,,,,,,,,left,0.692965,1,7,24,5,1,,,,,,,,,
,,,,,,,stim2/pa-20.wav,5b77869d338a9300015468cf,2021-01-20_16h01.33.277,Spanish_step2,2020.2.3,Win32,60,,,,,,,,,,,,,,,,,right,0.626115,1,8,25,13,1,,,,,,,,,
,,,,,,,stim2/pa+35.wav,5b77869d338a9300015468cf,2021-01-20_16h01.33.277,Spanish_step2,2020.2.3,Win32,60,,,,,,,,,,,,,,,,,left,0.55267,1,9,26,6,1,,,,,,,,,
,,,,,,,stim2/pa+50.wav,5b77869d338a9300015468cf,2021-01-20_16h01.33.277,Spanish_step2,2020.2.3,Win32,60,,,,,,,,,,,,,,,,,left,0.81965,1,10,27,9,1,,,,,,,,,
,,,,,,,stim2/pa+15.wav,5b77869d338a9300015468cf,2021-01-20_16h01.33.277,Spanish_step2,2020.2.3,Win32,60,,,,,,,,,,,,,,,,,left,0.570935,1,11,28,2,1,,,,,,,,,
,,,,,,,stim2/pa+20.wav,5b77869d338a9300015468cf,2021-01-20_16h01.33.277,Spanish_step2,2020.2.3,Win32,60,,,,,,,,,,,,,,,,,left,0.53534,1,12,29,3,1,,,,,,,,,
,,,,,,,stim2/pa-35.wav,5b77869d338a9300015468cf,2021-01-20_16h01.33.277,Spanish_step2,2020.2.3,Win32,60,,,,,,,,,,,,,,,,,right,0.427595,1,13,30,16,1,,,,,,,,,
,,,,,,,stim2/pa-30.wav,5b77869d338a9300015468cf,2021-01-20_16h01.33.277,Spanish_step2,2020.2.3,Win32,60,,,,,,,,,,,,,,,,,right,0.48686,1,14,31,15,1,,,,,,,,,
,,,,,,,stim2/pa-15.wav,5b77869d338a9300015468cf,2021-01-20_16h01.33.277,Spanish_step2,2020.2.3,Win32,60,,,,,,,,,,,,,,,,,right,0.850725,1,15,32,12,1,,,,,,,,,
,,,,,,,stim2/pa-25.wav,5b77869d338a9300015468cf,2021-01-20_16h01.33.277,Spanish_step2,2020.2.3,Win32,60,,,,,,,,,,,,,,,,,right,0.56743,1,16,33,14,1,,,,,,,,,
,,,,,,,stim2/pa-35.wav,5b77869d338a9300015468cf,2021-01-20_16h01.33.277,Spanish_step2,2020.2.3,Win32,60,,,,,,,,,,,,,,,,,right,0.482785,2,0,34,16,1,,,,,,,,,
,,,,,,,stim2/pa+20.wav,5b77869d338a9300015468cf,2021-01-20_16h01.33.277,Spanish_step2,2020.2.3,Win32,60,,,,,,,,,,,,,,,,,left,0.43856,2,1,35,3,1,,,,,,,,,
,,,,,,,stim2/pa-30.wav,5b77869d338a9300015468cf,2021-01-20_16h01.33.277,Spanish_step2,2020.2.3,Win32,60,,,,,,,,,,,,,,,,,right,0.50907,2,2,36,15,1,,,,,,,,,
,,,,,,,stim2/pa+10.wav,5b77869d338a9300015468cf,2021-01-20_16h01.33.277,Spanish_step2,2020.2.3,Win32,60,,,,,,,,,,,,,,,,,left,0.57196,2,3,37,1,1,,,,,,,,,
,,,,,,,stim2/pa+40.wav,5b77869d338a9300015468cf,2021-01-20_16h01.33.277,Spanish_step2,2020.2.3,Win32,60,,,,,,,,,,,,,,,,,left,0.471705,2,4,38,7,1,,,,,,,,,
,,,,,,,stim2/pa-15.wav,5b77869d338a9300015468cf,2021-01-20_16h01.33.277,Spanish_step2,2020.2.3,Win32,60,,,,,,,,,,,,,,,,,left,0.343165,2,5,39,12,1,,,,,,,,,
,,,,,,,stim2/pa+05.wav,5b77869d338a9300015468cf,2021-01-20_16h01.33.277,Spanish_step2,2020.2.3,Win32,60,,,,,,,,,,,,,,,,,left,0.866645,2,6,40,0,1,,,,,,,,,
,,,,,,,stim2/pa+45.wav,5b77869d338a9300015468cf,2021-01-20_16h01.33.277,Spanish_step2,2020.2.3,Win32,60,,,,,,,,,,,,,,,,,left,0.696645,2,7,41,8,1,,,,,,,,,
,,,,,,,stim2/pa+35.wav,5b77869d338a9300015468cf,2021-01-20_16h01.33.277,Spanish_step2,2020.2.3,Win32,60,,,,,,,,,,,,,,,,,left,0.51629,2,8,42,6,1,,,,,,,,,
,,,,,,,stim2/pa-05.wav,5b77869d338a9300015468cf,2021-01-20_16h01.33.277,Spanish_step2,2020.2.3,Win32,60,,,,,,,,,,,,,,,,,right,0.60471,2,9,43,10,1,,,,,,,,,
,,,,,,,stim2/pa+25.wav,5b77869d338a9300015468cf,2021-01-20_16h01.33.277,Spanish_step2,2020.2.3,Win32,60,,,,,,,,,,,,,,,,,left,0.771835,2,10,44,4,1,,,,,,,,,
,,,,,,,stim2/pa-10.wav,5b77869d338a9300015468cf,2021-01-20_16h01.33.277,Spanish_step2,2020.2.3,Win32,60,,,,,,,,,,,,,,,,,right,0.51679,2,11,45,11,1,,,,,,,,,
,,,,,,,stim2/pa+15.wav,5b77869d338a9300015468cf,2021-01-20_16h01.33.277,Spanish_step2,2020.2.3,Win32,60,,,,,,,,,,,,,,,,,left,0.60262,2,12,46,2,1,,,,,,,,,
,,,,,,,stim2/pa+30.wav,5b77869d338a9300015468cf,2021-01-20_16h01.33.277,Spanish_step2,2020.2.3,Win32,60,,,,,,,,,,,,,,,,,left,0.68885,2,13,47,5,1,,,,,,,,,
,,,,,,,stim2/pa-20.wav,5b77869d338a9300015468cf,2021-01-20_16h01.33.277,Spanish_step2,2020.2.3,Win32,60,,,,,,,,,,,,,,,,,right,0.50612,2,14,48,13,1,,,,,,,,,
,,,,,,,stim2/pa+50.wav,5b77869d338a9300015468cf,2021-01-20_16h01.33.277,Spanish_step2,2020.2.3,Win32,60,,,,,,,,,,,,,,,,,left,0.60873,2,15,49,9,1,,,,,,,,,
,,,,,,,stim2/pa-25.wav,5b77869d338a9300015468cf,2021-01-20_16h01.33.277,Spanish_step2,2020.2.3,Win32,60,,,,,,,,,,,,,,,,,right,0.48638,2,16,50,14,1,,,,,,,,,
,,,,,,,stim2/pa+25.wav,5b77869d338a9300015468cf,2021-01-20_16h01.33.277,Spanish_step2,2020.2.3,Win32,60,,,,,,,,,,,,,,,,,left,0.750035,,,,,,z,1.59115,0,0,0,4,1,,
,,,,,,,stim2/pa+30.wav,5b77869d338a9300015468cf,2021-01-20_16h01.33.277,Spanish_step2,2020.2.3,Win32,60,,,,,,,,,,,,,,,,,left,0.574335,,,,,,,,0,1,1,5,1,,
,,,,,,,stim2/pa+35.wav,5b77869d338a9300015468cf,2021-01-20_16h01.33.277,Spanish_step2,2020.2.3,Win32,60,,,,,,,,,,,,,,,,,left,0.594505,,,,,,,,0,2,2,6,1,,
,,,,,,,stim2/pa+15.wav,5b77869d338a9300015468cf,2021-01-20_16h01.33.277,Spanish_step2,2020.2.3,Win32,60,,,,,,,,,,,,,,,,,left,0.469855,,,,,,,,0,3,3,2,1,,
,,,,,,,stim2/pa-15.wav,5b77869d338a9300015468cf,2021-01-20_16h01.33.277,Spanish_step2,2020.2.3,Win32,60,,,,,,,,,,,,,,,,,right,0.53718,,,,,,,,0,4,4,12,1,,
,,,,,,,stim2/pa-05.wav,5b77869d338a9300015468cf,2021-01-20_16h01.33.277,Spanish_step2,2020.2.3,Win32,60,,,,,,,,,,,,,,,,,right,0.48848,,,,,,,,0,5,5,10,1,,
,,,,,,,stim2/pa-10.wav,5b77869d338a9300015468cf,2021-01-20_16h01.33.277,Spanish_step2,2020.2.3,Win32,60,,,,,,,,,,,,,,,,,right,0.524655,,,,,,,,0,6,6,11,1,,
,,,,,,,stim2/pa-30.wav,5b77869d338a9300015468cf,2021-01-20_16h01.33.277,Spanish_step2,2020.2.3,Win32,60,,,,,,,,,,,,,,,,,right,0.406175,,,,,,,,0,7,7,15,1,,
,,,,,,,stim2/pa-20.wav,5b77869d338a9300015468cf,2021-01-20_16h01.33.277,Spanish_step2,2020.2.3,Win32,60,,,,,,,,,,,,,,,,,right,0.42851,,,,,,,,0,8,8,13,1,,
,,,,,,,stim2/pa-35.wav,5b77869d338a9300015468cf,2021-01-20_16h01.33.277,Spanish_step2,2020.2.3,Win32,60,,,,,,,,,,,,,,,,,right,0.406695,,,,,,,,0,9,9,16,1,,
,,,,,,,stim2/pa+50.wav,5b77869d338a9300015468cf,2021-01-20_16h01.33.277,Spanish_step2,2020.2.3,Win32,60,,,,,,,,,,,,,,,,,left,0.505625,,,,,,,,0,10,10,9,1,,
,,,,,,,stim2/pa-25.wav,5b77869d338a9300015468cf,2021-01-20_16h01.33.277,Spanish_step2,2020.2.3,Win32,60,,,,,,,,,,,,,,,,,right,0.466505,,,,,,,,0,11,11,14,1,,
,,,,,,,stim2/pa+45.wav,5b77869d338a9300015468cf,2021-01-20_16h01.33.277,Spanish_step2,2020.2.3,Win32,60,,,,,,,,,,,,,,,,,left,0.512855,,,,,,,,0,12,12,8,1,,
,,,,,,,stim2/pa+20.wav,5b77869d338a9300015468cf,2021-01-20_16h01.33.277,Spanish_step2,2020.2.3,Win32,60,,,,,,,,,,,,,,,,,left,0.51736,,,,,,,,0,13,13,3,1,,
,,,,,,,stim2/pa+10.wav,5b77869d338a9300015468cf,2021-01-20_16h01.33.277,Spanish_step2,2020.2.3,Win32,60,,,,,,,,,,,,,,,,,right,0.62556,,,,,,,,0,14,14,1,1,,
,,,,,,,stim2/pa+05.wav,5b77869d338a9300015468cf,2021-01-20_16h01.33.277,Spanish_step2,2020.2.3,Win32,60,,,,,,,,,,,,,,,,,left,1.534795,,,,,,,,0,15,15,0,1,,
,,,,,,,stim2/pa+40.wav,5b77869d338a9300015468cf,2021-01-20_16h01.33.277,Spanish_step2,2020.2.3,Win32,60,,,,,,,,,,,,,,,,,left,0.625045,,,,,,,,0,16,16,7,1,,
,,,,,,,stim2/pa-30.wav,5b77869d338a9300015468cf,2021-01-20_16h01.33.277,Spanish_step2,2020.2.3,Win32,60,,,,,,,,,,,,,,,,,right,0.551175,,,,,,,,1,0,17,15,1,,
,,,,,,,stim2/pa+20.wav,5b77869d338a9300015468cf,2021-01-20_16h01.33.277,Spanish_step2,2020.2.3,Win32,60,,,,,,,,,,,,,,,,,left,0.735875,,,,,,,,1,1,18,3,1,,
,,,,,,,stim2/pa-20.wav,5b77869d338a9300015468cf,2021-01-20_16h01.33.277,Spanish_step2,2020.2.3,Win32,60,,,,,,,,,,,,,,,,,right,0.49325,,,,,,,,1,2,19,13,1,,
,,,,,,,stim2/pa-10.wav,5b77869d338a9300015468cf,2021-01-20_16h01.33.277,Spanish_step2,2020.2.3,Win32,60,,,,,,,,,,,,,,,,,right,0.550215,,,,,,,,1,3,20,11,1,,
,,,,,,,stim2/pa+40.wav,5b77869d338a9300015468cf,2021-01-20_16h01.33.277,Spanish_step2,2020.2.3,Win32,60,,,,,,,,,,,,,,,,,left,0.620885,,,,,,,,1,4,21,7,1,,
,,,,,,,stim2/pa-05.wav,5b77869d338a9300015468cf,2021-01-20_16h01.33.277,Spanish_step2,2020.2.3,Win32,60,,,,,,,,,,,,,,,,,right,0.771195,,,,,,,,1,5,22,10,1,,
,,,,,,,stim2/pa+45.wav,5b77869d338a9300015468cf,2021-01-20_16h01.33.277,Spanish_step2,2020.2.3,Win32,60,,,,,,,,,,,,,,,,,left,0.571085,,,,,,,,1,6,23,8,1,,
,,,,,,,stim2/pa+50.wav,5b77869d338a9300015468cf,2021-01-20_16h01.33.277,Spanish_step2,2020.2.3,Win32,60,,,,,,,,,,,,,,,,,left,0.55727,,,,,,,,1,7,24,9,1,,
,,,,,,,stim2/pa+05.wav,5b77869d338a9300015468cf,2021-01-20_16h01.33.277,Spanish_step2,2020.2.3,Win32,60,,,,,,,,,,,,,,,,,right,0.784255,,,,,,,,1,8,25,0,1,,
,,,,,,,stim2/pa+15.wav,5b77869d338a9300015468cf,2021-01-20_16h01.33.277,Spanish_step2,2020.2.3,Win32,60,,,,,,,,,,,,,,,,,left,0.58815,,,,,,,,1,9,26,2,1,,
,,,,,,,stim2/pa+10.wav,5b77869d338a9300015468cf,2021-01-20_16h01.33.277,Spanish_step2,2020.2.3,Win32,60,,,,,,,,,,,,,,,,,left,0.823875,,,,,,,,1,10,27,1,1,,
,,,,,,,stim2/pa-15.wav,5b77869d338a9300015468cf,2021-01-20_16h01.33.277,Spanish_step2,2020.2.3,Win32,60,,,,,,,,,,,,,,,,,right,0.511,,,,,,,,1,11,28,12,1,,
,,,,,,,stim2/pa-25.wav,5b77869d338a9300015468cf,2021-01-20_16h01.33.277,Spanish_step2,2020.2.3,Win32,60,,,,,,,,,,,,,,,,,right,0.700635,,,,,,,,1,12,29,14,1,,
,,,,,,,stim2/pa+25.wav,5b77869d338a9300015468cf,2021-01-20_16h01.33.277,Spanish_step2,2020.2.3,Win32,60,,,,,,,,,,,,,,,,,left,0.5589,,,,,,,,1,13,30,4,1,,
,,,,,,,stim2/pa-35.wav,5b77869d338a9300015468cf,2021-01-20_16h01.33.277,Spanish_step2,2020.2.3,Win32,60,,,,,,,,,,,,,,,,,right,0.724955,,,,,,,,1,14,31,16,1,,
,,,,,,,stim2/pa+35.wav,5b77869d338a9300015468cf,2021-01-20_16h01.33.277,Spanish_step2,2020.2.3,Win32,60,,,,,,,,,,,,,,,,,left,0.56152,,,,,,,,1,15,32,6,1,,
,,,,,,,stim2/pa+30.wav,5b77869d338a9300015468cf,2021-01-20_16h01.33.277,Spanish_step2,2020.2.3,Win32,60,,,,,,,,,,,,,,,,,left,0.593905,,,,,,,,1,16,33,5,1,,
,,,,,,,,5b77869d338a9300015468cf,2021-01-20_16h01.33.277,Spanish_step2,2020.2.3,Win32,60,,,,,,,,,,,,,,,,,,,,,,,,,,,,,,,space,17.318665
