resp.keys,resp.rt,trials.thisRepN,trials.thisTrialN,trials.thisN,trials.thisIndex,trials.ran,stimuli,participant,date,expName,psychopyVersion,OS,frameRate,gotResponse.keys,gotResponse.rt,resp_2.keys,resp_2.rt,trials_2.thisRepN,trials_2.thisTrialN,trials_2.thisN,trials_2.thisIndex,trials_2.ran,key_resp_3.keys,key_resp_3.rt,trials_4.thisRepN,trials_4.thisTrialN,trials_4.thisN,trials_4.thisIndex,trials_4.ran,resp_3.keys,resp_3.rt,trials_3.thisRepN,trials_3.thisTrialN,trials_3.thisN,trials_3.thisIndex,trials_3.ran,key_resp_2.keys,key_resp_2.rt,trials_5.thisRepN,trials_5.thisTrialN,trials_5.thisN,trials_5.thisIndex,trials_5.ran,key_resp.keys,key_resp.rt
left,1.11123,0,0,0,0,1,stim/VC_01.wav,5c8be0dd542fbd0016924f5f,2020-12-31_12h02.00.784,Spanish_step2,2020.2.3,MacIntel,60,,,,,,,,,,,,,,,,,,,,,,,,,,,,,,,,
right,0.571875,0,1,1,1,1,stim/VC_11.wav,5c8be0dd542fbd0016924f5f,2020-12-31_12h02.00.784,Spanish_step2,2020.2.3,MacIntel,60,,,,,,,,,,,,,,,,,,,,,,,,,,,,,,,,
,,,,,,,stim/VC_04.wav,5c8be0dd542fbd0016924f5f,2020-12-31_12h02.00.784,Spanish_step2,2020.2.3,MacIntel,60,space,1.78425,left,1.095335,0,0,0,3,1,,,,,,,,,,,,,,,,,,,,,,,
,,,,,,,stim/VC_07.wav,5c8be0dd542fbd0016924f5f,2020-12-31_12h02.00.784,Spanish_step2,2020.2.3,MacIntel,60,,,right,0.67288,0,1,1,6,1,,,,,,,,,,,,,,,,,,,,,,,
,,,,,,,stim/VC_09.wav,5c8be0dd542fbd0016924f5f,2020-12-31_12h02.00.784,Spanish_step2,2020.2.3,MacIntel,60,,,right,0.5962,0,2,2,8,1,,,,,,,,,,,,,,,,,,,,,,,
,,,,,,,stim/VC_10.wav,5c8be0dd542fbd0016924f5f,2020-12-31_12h02.00.784,Spanish_step2,2020.2.3,MacIntel,60,,,right,0.533475,0,3,3,9,1,,,,,,,,,,,,,,,,,,,,,,,
,,,,,,,stim/VC_05.wav,5c8be0dd542fbd0016924f5f,2020-12-31_12h02.00.784,Spanish_step2,2020.2.3,MacIntel,60,,,left,0.73373,0,4,4,4,1,,,,,,,,,,,,,,,,,,,,,,,
,,,,,,,stim/VC_06.wav,5c8be0dd542fbd0016924f5f,2020-12-31_12h02.00.784,Spanish_step2,2020.2.3,MacIntel,60,,,right,0.571535,0,5,5,5,1,,,,,,,,,,,,,,,,,,,,,,,
,,,,,,,stim/VC_02.wav,5c8be0dd542fbd0016924f5f,2020-12-31_12h02.00.784,Spanish_step2,2020.2.3,MacIntel,60,,,left,0.78501,0,6,6,1,1,,,,,,,,,,,,,,,,,,,,,,,
,,,,,,,stim/VC_03.wav,5c8be0dd542fbd0016924f5f,2020-12-31_12h02.00.784,Spanish_step2,2020.2.3,MacIntel,60,,,left,0.48858,0,7,7,2,1,,,,,,,,,,,,,,,,,,,,,,,
,,,,,,,stim/VC_11.wav,5c8be0dd542fbd0016924f5f,2020-12-31_12h02.00.784,Spanish_step2,2020.2.3,MacIntel,60,,,right,0.618075,0,8,8,10,1,,,,,,,,,,,,,,,,,,,,,,,
,,,,,,,stim/VC_01.wav,5c8be0dd542fbd0016924f5f,2020-12-31_12h02.00.784,Spanish_step2,2020.2.3,MacIntel,60,,,left,0.66626,0,9,9,0,1,,,,,,,,,,,,,,,,,,,,,,,
,,,,,,,stim/VC_08.wav,5c8be0dd542fbd0016924f5f,2020-12-31_12h02.00.784,Spanish_step2,2020.2.3,MacIntel,60,,,right,0.53395,0,10,10,7,1,,,,,,,,,,,,,,,,,,,,,,,
,,,,,,,stim/VC_04.wav,5c8be0dd542fbd0016924f5f,2020-12-31_12h02.00.784,Spanish_step2,2020.2.3,MacIntel,60,,,right,0.9356,1,0,11,3,1,,,,,,,,,,,,,,,,,,,,,,,
,,,,,,,stim/VC_06.wav,5c8be0dd542fbd0016924f5f,2020-12-31_12h02.00.784,Spanish_step2,2020.2.3,MacIntel,60,,,right,0.600255,1,1,12,5,1,,,,,,,,,,,,,,,,,,,,,,,
,,,,,,,stim/VC_01.wav,5c8be0dd542fbd0016924f5f,2020-12-31_12h02.00.784,Spanish_step2,2020.2.3,MacIntel,60,,,left,0.484345,1,2,13,0,1,,,,,,,,,,,,,,,,,,,,,,,
,,,,,,,stim/VC_10.wav,5c8be0dd542fbd0016924f5f,2020-12-31_12h02.00.784,Spanish_step2,2020.2.3,MacIntel,60,,,right,0.584285,1,3,14,9,1,,,,,,,,,,,,,,,,,,,,,,,
,,,,,,,stim/VC_11.wav,5c8be0dd542fbd0016924f5f,2020-12-31_12h02.00.784,Spanish_step2,2020.2.3,MacIntel,60,,,right,0.50323,1,4,15,10,1,,,,,,,,,,,,,,,,,,,,,,,
,,,,,,,stim/VC_02.wav,5c8be0dd542fbd0016924f5f,2020-12-31_12h02.00.784,Spanish_step2,2020.2.3,MacIntel,60,,,left,0.53851,1,5,16,1,1,,,,,,,,,,,,,,,,,,,,,,,
,,,,,,,stim/VC_09.wav,5c8be0dd542fbd0016924f5f,2020-12-31_12h02.00.784,Spanish_step2,2020.2.3,MacIntel,60,,,right,0.88322,1,6,17,8,1,,,,,,,,,,,,,,,,,,,,,,,
,,,,,,,stim/VC_08.wav,5c8be0dd542fbd0016924f5f,2020-12-31_12h02.00.784,Spanish_step2,2020.2.3,MacIntel,60,,,right,0.53564,1,7,18,7,1,,,,,,,,,,,,,,,,,,,,,,,
,,,,,,,stim/VC_07.wav,5c8be0dd542fbd0016924f5f,2020-12-31_12h02.00.784,Spanish_step2,2020.2.3,MacIntel,60,,,right,0.51825,1,8,19,6,1,,,,,,,,,,,,,,,,,,,,,,,
,,,,,,,stim/VC_05.wav,5c8be0dd542fbd0016924f5f,2020-12-31_12h02.00.784,Spanish_step2,2020.2.3,MacIntel,60,,,right,0.520825,1,9,20,4,1,,,,,,,,,,,,,,,,,,,,,,,
,,,,,,,stim/VC_03.wav,5c8be0dd542fbd0016924f5f,2020-12-31_12h02.00.784,Spanish_step2,2020.2.3,MacIntel,60,,,left,0.49043,1,10,21,2,1,,,,,,,,,,,,,,,,,,,,,,,
,,,,,,,stim/VC_10.wav,5c8be0dd542fbd0016924f5f,2020-12-31_12h02.00.784,Spanish_step2,2020.2.3,MacIntel,60,,,right,0.92489,2,0,22,9,1,,,,,,,,,,,,,,,,,,,,,,,
,,,,,,,stim/VC_01.wav,5c8be0dd542fbd0016924f5f,2020-12-31_12h02.00.784,Spanish_step2,2020.2.3,MacIntel,60,,,left,0.666575,2,1,23,0,1,,,,,,,,,,,,,,,,,,,,,,,
,,,,,,,stim/VC_04.wav,5c8be0dd542fbd0016924f5f,2020-12-31_12h02.00.784,Spanish_step2,2020.2.3,MacIntel,60,,,left,1.70179,2,2,24,3,1,,,,,,,,,,,,,,,,,,,,,,,
,,,,,,,stim/VC_05.wav,5c8be0dd542fbd0016924f5f,2020-12-31_12h02.00.784,Spanish_step2,2020.2.3,MacIntel,60,,,right,1.079735,2,3,25,4,1,,,,,,,,,,,,,,,,,,,,,,,
,,,,,,,stim/VC_09.wav,5c8be0dd542fbd0016924f5f,2020-12-31_12h02.00.784,Spanish_step2,2020.2.3,MacIntel,60,,,right,0.600785,2,4,26,8,1,,,,,,,,,,,,,,,,,,,,,,,
,,,,,,,stim/VC_06.wav,5c8be0dd542fbd0016924f5f,2020-12-31_12h02.00.784,Spanish_step2,2020.2.3,MacIntel,60,,,right,0.565405,2,5,27,5,1,,,,,,,,,,,,,,,,,,,,,,,
,,,,,,,stim/VC_07.wav,5c8be0dd542fbd0016924f5f,2020-12-31_12h02.00.784,Spanish_step2,2020.2.3,MacIntel,60,,,right,0.63395,2,6,28,6,1,,,,,,,,,,,,,,,,,,,,,,,
,,,,,,,stim/VC_02.wav,5c8be0dd542fbd0016924f5f,2020-12-31_12h02.00.784,Spanish_step2,2020.2.3,MacIntel,60,,,left,0.533005,2,7,29,1,1,,,,,,,,,,,,,,,,,,,,,,,
,,,,,,,stim/VC_08.wav,5c8be0dd542fbd0016924f5f,2020-12-31_12h02.00.784,Spanish_step2,2020.2.3,MacIntel,60,,,right,0.583105,2,8,30,7,1,,,,,,,,,,,,,,,,,,,,,,,
,,,,,,,stim/VC_11.wav,5c8be0dd542fbd0016924f5f,2020-12-31_12h02.00.784,Spanish_step2,2020.2.3,MacIntel,60,,,right,0.66883,2,9,31,10,1,,,,,,,,,,,,,,,,,,,,,,,
,,,,,,,stim/VC_03.wav,5c8be0dd542fbd0016924f5f,2020-12-31_12h02.00.784,Spanish_step2,2020.2.3,MacIntel,60,,,left,0.65199,2,10,32,2,1,,,,,,,,,,,,,,,,,,,,,,,
,,,,,,,stim/VC_06.wav,5c8be0dd542fbd0016924f5f,2020-12-31_12h02.00.784,Spanish_step2,2020.2.3,MacIntel,60,,,right,1.88699,,,,,,7,6.185845,0,0,0,5,1,,,,,,,,,,,,,,,,
,,,,,,,stim/VC_07.wav,5c8be0dd542fbd0016924f5f,2020-12-31_12h02.00.784,Spanish_step2,2020.2.3,MacIntel,60,,,right,0.733855,,,,,,,,0,1,1,6,1,,,,,,,,,,,,,,,,
,,,,,,,stim/VC_04.wav,5c8be0dd542fbd0016924f5f,2020-12-31_12h02.00.784,Spanish_step2,2020.2.3,MacIntel,60,,,left,0.783325,,,,,,,,0,2,2,3,1,,,,,,,,,,,,,,,,
,,,,,,,stim/VC_08.wav,5c8be0dd542fbd0016924f5f,2020-12-31_12h02.00.784,Spanish_step2,2020.2.3,MacIntel,60,,,right,0.568665,,,,,,,,0,3,3,7,1,,,,,,,,,,,,,,,,
,,,,,,,stim/VC_02.wav,5c8be0dd542fbd0016924f5f,2020-12-31_12h02.00.784,Spanish_step2,2020.2.3,MacIntel,60,,,left,0.589135,,,,,,,,0,4,4,1,1,,,,,,,,,,,,,,,,
,,,,,,,stim/VC_11.wav,5c8be0dd542fbd0016924f5f,2020-12-31_12h02.00.784,Spanish_step2,2020.2.3,MacIntel,60,,,right,0.733825,,,,,,,,0,5,5,10,1,,,,,,,,,,,,,,,,
,,,,,,,stim/VC_01.wav,5c8be0dd542fbd0016924f5f,2020-12-31_12h02.00.784,Spanish_step2,2020.2.3,MacIntel,60,,,left,0.60215,,,,,,,,0,6,6,0,1,,,,,,,,,,,,,,,,
,,,,,,,stim/VC_05.wav,5c8be0dd542fbd0016924f5f,2020-12-31_12h02.00.784,Spanish_step2,2020.2.3,MacIntel,60,,,left,0.890225,,,,,,,,0,7,7,4,1,,,,,,,,,,,,,,,,
,,,,,,,stim/VC_03.wav,5c8be0dd542fbd0016924f5f,2020-12-31_12h02.00.784,Spanish_step2,2020.2.3,MacIntel,60,,,left,0.48415,,,,,,,,0,8,8,2,1,,,,,,,,,,,,,,,,
,,,,,,,stim/VC_10.wav,5c8be0dd542fbd0016924f5f,2020-12-31_12h02.00.784,Spanish_step2,2020.2.3,MacIntel,60,,,right,0.51718,,,,,,,,0,9,9,9,1,,,,,,,,,,,,,,,,
,,,,,,,stim/VC_09.wav,5c8be0dd542fbd0016924f5f,2020-12-31_12h02.00.784,Spanish_step2,2020.2.3,MacIntel,60,,,right,0.51346,,,,,,,,0,10,10,8,1,,,,,,,,,,,,,,,,
,,,,,,,stim/VC_03.wav,5c8be0dd542fbd0016924f5f,2020-12-31_12h02.00.784,Spanish_step2,2020.2.3,MacIntel,60,,,left,0.66602,,,,,,,,1,0,11,2,1,,,,,,,,,,,,,,,,
,,,,,,,stim/VC_01.wav,5c8be0dd542fbd0016924f5f,2020-12-31_12h02.00.784,Spanish_step2,2020.2.3,MacIntel,60,,,left,0.55076,,,,,,,,1,1,12,0,1,,,,,,,,,,,,,,,,
,,,,,,,stim/VC_05.wav,5c8be0dd542fbd0016924f5f,2020-12-31_12h02.00.784,Spanish_step2,2020.2.3,MacIntel,60,,,right,0.919945,,,,,,,,1,2,13,4,1,,,,,,,,,,,,,,,,
,,,,,,,stim/VC_10.wav,5c8be0dd542fbd0016924f5f,2020-12-31_12h02.00.784,Spanish_step2,2020.2.3,MacIntel,60,,,right,0.71347,,,,,,,,1,3,14,9,1,,,,,,,,,,,,,,,,
,,,,,,,stim/VC_08.wav,5c8be0dd542fbd0016924f5f,2020-12-31_12h02.00.784,Spanish_step2,2020.2.3,MacIntel,60,,,right,0.56995,,,,,,,,1,4,15,7,1,,,,,,,,,,,,,,,,
,,,,,,,stim/VC_02.wav,5c8be0dd542fbd0016924f5f,2020-12-31_12h02.00.784,Spanish_step2,2020.2.3,MacIntel,60,,,left,0.53288,,,,,,,,1,5,16,1,1,,,,,,,,,,,,,,,,
,,,,,,,stim/VC_11.wav,5c8be0dd542fbd0016924f5f,2020-12-31_12h02.00.784,Spanish_step2,2020.2.3,MacIntel,60,,,right,0.51989,,,,,,,,1,6,17,10,1,,,,,,,,,,,,,,,,
,,,,,,,stim/VC_06.wav,5c8be0dd542fbd0016924f5f,2020-12-31_12h02.00.784,Spanish_step2,2020.2.3,MacIntel,60,,,right,1.02426,,,,,,,,1,7,18,5,1,,,,,,,,,,,,,,,,
,,,,,,,stim/VC_04.wav,5c8be0dd542fbd0016924f5f,2020-12-31_12h02.00.784,Spanish_step2,2020.2.3,MacIntel,60,,,left,1.00069,,,,,,,,1,8,19,3,1,,,,,,,,,,,,,,,,
,,,,,,,stim/VC_07.wav,5c8be0dd542fbd0016924f5f,2020-12-31_12h02.00.784,Spanish_step2,2020.2.3,MacIntel,60,,,right,0.516655,,,,,,,,1,9,20,6,1,,,,,,,,,,,,,,,,
,,,,,,,stim/VC_09.wav,5c8be0dd542fbd0016924f5f,2020-12-31_12h02.00.784,Spanish_step2,2020.2.3,MacIntel,60,,,right,0.632725,,,,,,,,1,10,21,8,1,,,,,,,,,,,,,,,,
,,,,,,,stim2/pa+20.wav,5c8be0dd542fbd0016924f5f,2020-12-31_12h02.00.784,Spanish_step2,2020.2.3,MacIntel,60,,,,,,,,,,,,,,,,,right,1.489475,0,0,0,3,1,,,,,,,,,
,,,,,,,stim2/pa-30.wav,5c8be0dd542fbd0016924f5f,2020-12-31_12h02.00.784,Spanish_step2,2020.2.3,MacIntel,60,,,,,,,,,,,,,,,,,right,0.787515,0,1,1,15,1,,,,,,,,,
,,,,,,,stim2/pa+40.wav,5c8be0dd542fbd0016924f5f,2020-12-31_12h02.00.784,Spanish_step2,2020.2.3,MacIntel,60,,,,,,,,,,,,,,,,,right,0.85728,0,2,2,7,1,,,,,,,,,
,,,,,,,stim2/pa-05.wav,5c8be0dd542fbd0016924f5f,2020-12-31_12h02.00.784,Spanish_step2,2020.2.3,MacIntel,60,,,,,,,,,,,,,,,,,right,0.866845,0,3,3,10,1,,,,,,,,,
,,,,,,,stim2/pa+50.wav,5c8be0dd542fbd0016924f5f,2020-12-31_12h02.00.784,Spanish_step2,2020.2.3,MacIntel,60,,,,,,,,,,,,,,,,,right,1.09923,0,4,4,9,1,,,,,,,,,
,,,,,,,stim2/pa-15.wav,5c8be0dd542fbd0016924f5f,2020-12-31_12h02.00.784,Spanish_step2,2020.2.3,MacIntel,60,,,,,,,,,,,,,,,,,right,0.68365,0,5,5,12,1,,,,,,,,,
,,,,,,,stim2/pa-20.wav,5c8be0dd542fbd0016924f5f,2020-12-31_12h02.00.784,Spanish_step2,2020.2.3,MacIntel,60,,,,,,,,,,,,,,,,,right,0.554345,0,6,6,13,1,,,,,,,,,
,,,,,,,stim2/pa-10.wav,5c8be0dd542fbd0016924f5f,2020-12-31_12h02.00.784,Spanish_step2,2020.2.3,MacIntel,60,,,,,,,,,,,,,,,,,right,0.65687,0,7,7,11,1,,,,,,,,,
,,,,,,,stim2/pa+05.wav,5c8be0dd542fbd0016924f5f,2020-12-31_12h02.00.784,Spanish_step2,2020.2.3,MacIntel,60,,,,,,,,,,,,,,,,,right,5.52021,0,8,8,0,1,,,,,,,,,
,,,,,,,stim2/pa-35.wav,5c8be0dd542fbd0016924f5f,2020-12-31_12h02.00.784,Spanish_step2,2020.2.3,MacIntel,60,,,,,,,,,,,,,,,,,right,0.882285,0,9,9,16,1,,,,,,,,,
,,,,,,,stim2/pa+30.wav,5c8be0dd542fbd0016924f5f,2020-12-31_12h02.00.784,Spanish_step2,2020.2.3,MacIntel,60,,,,,,,,,,,,,,,,,right,0.85361,0,10,10,5,1,,,,,,,,,
,,,,,,,stim2/pa+25.wav,5c8be0dd542fbd0016924f5f,2020-12-31_12h02.00.784,Spanish_step2,2020.2.3,MacIntel,60,,,,,,,,,,,,,,,,,left,0.583095,0,11,11,4,1,,,,,,,,,
,,,,,,,stim2/pa+45.wav,5c8be0dd542fbd0016924f5f,2020-12-31_12h02.00.784,Spanish_step2,2020.2.3,MacIntel,60,,,,,,,,,,,,,,,,,left,1.013715,0,12,12,8,1,,,,,,,,,
,,,,,,,stim2/pa+15.wav,5c8be0dd542fbd0016924f5f,2020-12-31_12h02.00.784,Spanish_step2,2020.2.3,MacIntel,60,,,,,,,,,,,,,,,,,left,1.190535,0,13,13,2,1,,,,,,,,,
,,,,,,,stim2/pa+10.wav,5c8be0dd542fbd0016924f5f,2020-12-31_12h02.00.784,Spanish_step2,2020.2.3,MacIntel,60,,,,,,,,,,,,,,,,,right,0.700595,0,14,14,1,1,,,,,,,,,
,,,,,,,stim2/pa+35.wav,5c8be0dd542fbd0016924f5f,2020-12-31_12h02.00.784,Spanish_step2,2020.2.3,MacIntel,60,,,,,,,,,,,,,,,,,right,0.56649,0,15,15,6,1,,,,,,,,,
,,,,,,,stim2/pa-25.wav,5c8be0dd542fbd0016924f5f,2020-12-31_12h02.00.784,Spanish_step2,2020.2.3,MacIntel,60,,,,,,,,,,,,,,,,,right,0.70597,0,16,16,14,1,,,,,,,,,
,,,,,,,stim2/pa+30.wav,5c8be0dd542fbd0016924f5f,2020-12-31_12h02.00.784,Spanish_step2,2020.2.3,MacIntel,60,,,,,,,,,,,,,,,,,left,0.64998,1,0,17,5,1,,,,,,,,,
,,,,,,,stim2/pa-20.wav,5c8be0dd542fbd0016924f5f,2020-12-31_12h02.00.784,Spanish_step2,2020.2.3,MacIntel,60,,,,,,,,,,,,,,,,,right,1.098265,1,1,18,13,1,,,,,,,,,
,,,,,,,stim2/pa+40.wav,5c8be0dd542fbd0016924f5f,2020-12-31_12h02.00.784,Spanish_step2,2020.2.3,MacIntel,60,,,,,,,,,,,,,,,,,right,1.03609,1,2,19,7,1,,,,,,,,,
,,,,,,,stim2/pa+05.wav,5c8be0dd542fbd0016924f5f,2020-12-31_12h02.00.784,Spanish_step2,2020.2.3,MacIntel,60,,,,,,,,,,,,,,,,,right,0.73294,1,3,20,0,1,,,,,,,,,
,,,,,,,stim2/pa-30.wav,5c8be0dd542fbd0016924f5f,2020-12-31_12h02.00.784,Spanish_step2,2020.2.3,MacIntel,60,,,,,,,,,,,,,,,,,right,0.71634,1,4,21,15,1,,,,,,,,,
,,,,,,,stim2/pa+25.wav,5c8be0dd542fbd0016924f5f,2020-12-31_12h02.00.784,Spanish_step2,2020.2.3,MacIntel,60,,,,,,,,,,,,,,,,,left,0.43697,1,5,22,4,1,,,,,,,,,
,,,,,,,stim2/pa-05.wav,5c8be0dd542fbd0016924f5f,2020-12-31_12h02.00.784,Spanish_step2,2020.2.3,MacIntel,60,,,,,,,,,,,,,,,,,right,0.669325,1,6,23,10,1,,,,,,,,,
,,,,,,,stim2/pa+10.wav,5c8be0dd542fbd0016924f5f,2020-12-31_12h02.00.784,Spanish_step2,2020.2.3,MacIntel,60,,,,,,,,,,,,,,,,,right,1.365765,1,7,24,1,1,,,,,,,,,
,,,,,,,stim2/pa+50.wav,5c8be0dd542fbd0016924f5f,2020-12-31_12h02.00.784,Spanish_step2,2020.2.3,MacIntel,60,,,,,,,,,,,,,,,,,right,1.2069,1,8,25,9,1,,,,,,,,,
,,,,,,,stim2/pa-10.wav,5c8be0dd542fbd0016924f5f,2020-12-31_12h02.00.784,Spanish_step2,2020.2.3,MacIntel,60,,,,,,,,,,,,,,,,,right,0.535305,1,9,26,11,1,,,,,,,,,
,,,,,,,stim2/pa+20.wav,5c8be0dd542fbd0016924f5f,2020-12-31_12h02.00.784,Spanish_step2,2020.2.3,MacIntel,60,,,,,,,,,,,,,,,,,left,0.72058,1,10,27,3,1,,,,,,,,,
,,,,,,,stim2/pa-35.wav,5c8be0dd542fbd0016924f5f,2020-12-31_12h02.00.784,Spanish_step2,2020.2.3,MacIntel,60,,,,,,,,,,,,,,,,,right,0.56631,1,11,28,16,1,,,,,,,,,
,,,,,,,stim2/pa+15.wav,5c8be0dd542fbd0016924f5f,2020-12-31_12h02.00.784,Spanish_step2,2020.2.3,MacIntel,60,,,,,,,,,,,,,,,,,left,0.50469,1,12,29,2,1,,,,,,,,,
,,,,,,,stim2/pa-15.wav,5c8be0dd542fbd0016924f5f,2020-12-31_12h02.00.784,Spanish_step2,2020.2.3,MacIntel,60,,,,,,,,,,,,,,,,,right,0.669325,1,13,30,12,1,,,,,,,,,
,,,,,,,stim2/pa-25.wav,5c8be0dd542fbd0016924f5f,2020-12-31_12h02.00.784,Spanish_step2,2020.2.3,MacIntel,60,,,,,,,,,,,,,,,,,right,0.75367,1,14,31,14,1,,,,,,,,,
,,,,,,,stim2/pa+35.wav,5c8be0dd542fbd0016924f5f,2020-12-31_12h02.00.784,Spanish_step2,2020.2.3,MacIntel,60,,,,,,,,,,,,,,,,,left,0.59942,1,15,32,6,1,,,,,,,,,
,,,,,,,stim2/pa+45.wav,5c8be0dd542fbd0016924f5f,2020-12-31_12h02.00.784,Spanish_step2,2020.2.3,MacIntel,60,,,,,,,,,,,,,,,,,left,0.66682,1,16,33,8,1,,,,,,,,,
,,,,,,,stim2/pa-20.wav,5c8be0dd542fbd0016924f5f,2020-12-31_12h02.00.784,Spanish_step2,2020.2.3,MacIntel,60,,,,,,,,,,,,,,,,,right,0.488035,2,0,34,13,1,,,,,,,,,
,,,,,,,stim2/pa+40.wav,5c8be0dd542fbd0016924f5f,2020-12-31_12h02.00.784,Spanish_step2,2020.2.3,MacIntel,60,,,,,,,,,,,,,,,,,left,0.54963,2,1,35,7,1,,,,,,,,,
,,,,,,,stim2/pa+15.wav,5c8be0dd542fbd0016924f5f,2020-12-31_12h02.00.784,Spanish_step2,2020.2.3,MacIntel,60,,,,,,,,,,,,,,,,,left,0.531145,2,2,36,2,1,,,,,,,,,
,,,,,,,stim2/pa-35.wav,5c8be0dd542fbd0016924f5f,2020-12-31_12h02.00.784,Spanish_step2,2020.2.3,MacIntel,60,,,,,,,,,,,,,,,,,right,0.61629,2,3,37,16,1,,,,,,,,,
,,,,,,,stim2/pa+05.wav,5c8be0dd542fbd0016924f5f,2020-12-31_12h02.00.784,Spanish_step2,2020.2.3,MacIntel,60,,,,,,,,,,,,,,,,,left,0.50002,2,4,38,0,1,,,,,,,,,
,,,,,,,stim2/pa+20.wav,5c8be0dd542fbd0016924f5f,2020-12-31_12h02.00.784,Spanish_step2,2020.2.3,MacIntel,60,,,,,,,,,,,,,,,,,left,0.486045,2,5,39,3,1,,,,,,,,,
,,,,,,,stim2/pa+30.wav,5c8be0dd542fbd0016924f5f,2020-12-31_12h02.00.784,Spanish_step2,2020.2.3,MacIntel,60,,,,,,,,,,,,,,,,,left,0.433795,2,6,40,5,1,,,,,,,,,
,,,,,,,stim2/pa-30.wav,5c8be0dd542fbd0016924f5f,2020-12-31_12h02.00.784,Spanish_step2,2020.2.3,MacIntel,60,,,,,,,,,,,,,,,,,right,0.44936,2,7,41,15,1,,,,,,,,,
,,,,,,,stim2/pa-10.wav,5c8be0dd542fbd0016924f5f,2020-12-31_12h02.00.784,Spanish_step2,2020.2.3,MacIntel,60,,,,,,,,,,,,,,,,,left,0.337915,2,8,42,11,1,,,,,,,,,
,,,,,,,stim2/pa+10.wav,5c8be0dd542fbd0016924f5f,2020-12-31_12h02.00.784,Spanish_step2,2020.2.3,MacIntel,60,,,,,,,,,,,,,,,,,left,0.64938,2,9,43,1,1,,,,,,,,,
,,,,,,,stim2/pa+25.wav,5c8be0dd542fbd0016924f5f,2020-12-31_12h02.00.784,Spanish_step2,2020.2.3,MacIntel,60,,,,,,,,,,,,,,,,,left,0.647685,2,10,44,4,1,,,,,,,,,
,,,,,,,stim2/pa+45.wav,5c8be0dd542fbd0016924f5f,2020-12-31_12h02.00.784,Spanish_step2,2020.2.3,MacIntel,60,,,,,,,,,,,,,,,,,right,0.45065,2,11,45,8,1,,,,,,,,,
,,,,,,,stim2/pa-25.wav,5c8be0dd542fbd0016924f5f,2020-12-31_12h02.00.784,Spanish_step2,2020.2.3,MacIntel,60,,,,,,,,,,,,,,,,,right,0.899345,2,12,46,14,1,,,,,,,,,
,,,,,,,stim2/pa+50.wav,5c8be0dd542fbd0016924f5f,2020-12-31_12h02.00.784,Spanish_step2,2020.2.3,MacIntel,60,,,,,,,,,,,,,,,,,right,1.05336,2,13,47,9,1,,,,,,,,,
,,,,,,,stim2/pa-15.wav,5c8be0dd542fbd0016924f5f,2020-12-31_12h02.00.784,Spanish_step2,2020.2.3,MacIntel,60,,,,,,,,,,,,,,,,,right,0.55326,2,14,48,12,1,,,,,,,,,
,,,,,,,stim2/pa+35.wav,5c8be0dd542fbd0016924f5f,2020-12-31_12h02.00.784,Spanish_step2,2020.2.3,MacIntel,60,,,,,,,,,,,,,,,,,left,0.5205,2,15,49,6,1,,,,,,,,,
,,,,,,,stim2/pa-05.wav,5c8be0dd542fbd0016924f5f,2020-12-31_12h02.00.784,Spanish_step2,2020.2.3,MacIntel,60,,,,,,,,,,,,,,,,,right,0.56312,2,16,50,10,1,,,,,,,,,
,,,,,,,stim2/pa+50.wav,5c8be0dd542fbd0016924f5f,2020-12-31_12h02.00.784,Spanish_step2,2020.2.3,MacIntel,60,,,,,,,,,,,,,,,,,right,1.86344,,,,,,z,3.046135,0,0,0,9,1,,
,,,,,,,stim2/pa+45.wav,5c8be0dd542fbd0016924f5f,2020-12-31_12h02.00.784,Spanish_step2,2020.2.3,MacIntel,60,,,,,,,,,,,,,,,,,left,0.73329,,,,,,,,0,1,1,8,1,,
,,,,,,,stim2/pa+25.wav,5c8be0dd542fbd0016924f5f,2020-12-31_12h02.00.784,Spanish_step2,2020.2.3,MacIntel,60,,,,,,,,,,,,,,,,,right,0.457055,,,,,,,,0,2,2,4,1,,
,,,,,,,stim2/pa-35.wav,5c8be0dd542fbd0016924f5f,2020-12-31_12h02.00.784,Spanish_step2,2020.2.3,MacIntel,60,,,,,,,,,,,,,,,,,right,0.717095,,,,,,,,0,3,3,16,1,,
,,,,,,,stim2/pa+40.wav,5c8be0dd542fbd0016924f5f,2020-12-31_12h02.00.784,Spanish_step2,2020.2.3,MacIntel,60,,,,,,,,,,,,,,,,,left,0.418295,,,,,,,,0,4,4,7,1,,
,,,,,,,stim2/pa-10.wav,5c8be0dd542fbd0016924f5f,2020-12-31_12h02.00.784,Spanish_step2,2020.2.3,MacIntel,60,,,,,,,,,,,,,,,,,right,0.666315,,,,,,,,0,5,5,11,1,,
,,,,,,,stim2/pa-25.wav,5c8be0dd542fbd0016924f5f,2020-12-31_12h02.00.784,Spanish_step2,2020.2.3,MacIntel,60,,,,,,,,,,,,,,,,,right,0.4861,,,,,,,,0,6,6,14,1,,
,,,,,,,stim2/pa-15.wav,5c8be0dd542fbd0016924f5f,2020-12-31_12h02.00.784,Spanish_step2,2020.2.3,MacIntel,60,,,,,,,,,,,,,,,,,right,0.43835,,,,,,,,0,7,7,12,1,,
,,,,,,,stim2/pa+35.wav,5c8be0dd542fbd0016924f5f,2020-12-31_12h02.00.784,Spanish_step2,2020.2.3,MacIntel,60,,,,,,,,,,,,,,,,,left,0.34624,,,,,,,,0,8,8,6,1,,
,,,,,,,stim2/pa-20.wav,5c8be0dd542fbd0016924f5f,2020-12-31_12h02.00.784,Spanish_step2,2020.2.3,MacIntel,60,,,,,,,,,,,,,,,,,right,0.481465,,,,,,,,0,9,9,13,1,,
,,,,,,,stim2/pa+05.wav,5c8be0dd542fbd0016924f5f,2020-12-31_12h02.00.784,Spanish_step2,2020.2.3,MacIntel,60,,,,,,,,,,,,,,,,,left,0.419695,,,,,,,,0,10,10,0,1,,
,,,,,,,stim2/pa-05.wav,5c8be0dd542fbd0016924f5f,2020-12-31_12h02.00.784,Spanish_step2,2020.2.3,MacIntel,60,,,,,,,,,,,,,,,,,right,0.46337,,,,,,,,0,11,11,10,1,,
,,,,,,,stim2/pa+15.wav,5c8be0dd542fbd0016924f5f,2020-12-31_12h02.00.784,Spanish_step2,2020.2.3,MacIntel,60,,,,,,,,,,,,,,,,,left,0.449385,,,,,,,,0,12,12,2,1,,
,,,,,,,stim2/pa+10.wav,5c8be0dd542fbd0016924f5f,2020-12-31_12h02.00.784,Spanish_step2,2020.2.3,MacIntel,60,,,,,,,,,,,,,,,,,left,0.704035,,,,,,,,0,13,13,1,1,,
,,,,,,,stim2/pa+30.wav,5c8be0dd542fbd0016924f5f,2020-12-31_12h02.00.784,Spanish_step2,2020.2.3,MacIntel,60,,,,,,,,,,,,,,,,,left,0.56837,,,,,,,,0,14,14,5,1,,
,,,,,,,stim2/pa-30.wav,5c8be0dd542fbd0016924f5f,2020-12-31_12h02.00.784,Spanish_step2,2020.2.3,MacIntel,60,,,,,,,,,,,,,,,,,right,0.481435,,,,,,,,0,15,15,15,1,,
,,,,,,,stim2/pa+20.wav,5c8be0dd542fbd0016924f5f,2020-12-31_12h02.00.784,Spanish_step2,2020.2.3,MacIntel,60,,,,,,,,,,,,,,,,,left,0.469795,,,,,,,,0,16,16,3,1,,
,,,,,,,stim2/pa-20.wav,5c8be0dd542fbd0016924f5f,2020-12-31_12h02.00.784,Spanish_step2,2020.2.3,MacIntel,60,,,,,,,,,,,,,,,,,right,0.720295,,,,,,,,1,0,17,13,1,,
,,,,,,,stim2/pa+15.wav,5c8be0dd542fbd0016924f5f,2020-12-31_12h02.00.784,Spanish_step2,2020.2.3,MacIntel,60,,,,,,,,,,,,,,,,,left,0.53032,,,,,,,,1,1,18,2,1,,
,,,,,,,stim2/pa+45.wav,5c8be0dd542fbd0016924f5f,2020-12-31_12h02.00.784,Spanish_step2,2020.2.3,MacIntel,60,,,,,,,,,,,,,,,,,left,0.650795,,,,,,,,1,2,19,8,1,,
,,,,,,,stim2/pa-10.wav,5c8be0dd542fbd0016924f5f,2020-12-31_12h02.00.784,Spanish_step2,2020.2.3,MacIntel,60,,,,,,,,,,,,,,,,,right,0.48332,,,,,,,,1,3,20,11,1,,
,,,,,,,stim2/pa-05.wav,5c8be0dd542fbd0016924f5f,2020-12-31_12h02.00.784,Spanish_step2,2020.2.3,MacIntel,60,,,,,,,,,,,,,,,,,left,0.523795,,,,,,,,1,4,21,10,1,,
,,,,,,,stim2/pa-15.wav,5c8be0dd542fbd0016924f5f,2020-12-31_12h02.00.784,Spanish_step2,2020.2.3,MacIntel,60,,,,,,,,,,,,,,,,,right,0.71769,,,,,,,,1,5,22,12,1,,
,,,,,,,stim2/pa-25.wav,5c8be0dd542fbd0016924f5f,2020-12-31_12h02.00.784,Spanish_step2,2020.2.3,MacIntel,60,,,,,,,,,,,,,,,,,right,0.48638,,,,,,,,1,6,23,14,1,,
,,,,,,,stim2/pa-30.wav,5c8be0dd542fbd0016924f5f,2020-12-31_12h02.00.784,Spanish_step2,2020.2.3,MacIntel,60,,,,,,,,,,,,,,,,,right,0.474065,,,,,,,,1,7,24,15,1,,
,,,,,,,stim2/pa+35.wav,5c8be0dd542fbd0016924f5f,2020-12-31_12h02.00.784,Spanish_step2,2020.2.3,MacIntel,60,,,,,,,,,,,,,,,,,left,0.703725,,,,,,,,1,8,25,6,1,,
,,,,,,,stim2/pa+10.wav,5c8be0dd542fbd0016924f5f,2020-12-31_12h02.00.784,Spanish_step2,2020.2.3,MacIntel,60,,,,,,,,,,,,,,,,,left,0.49682,,,,,,,,1,9,26,1,1,,
,,,,,,,stim2/pa+05.wav,5c8be0dd542fbd0016924f5f,2020-12-31_12h02.00.784,Spanish_step2,2020.2.3,MacIntel,60,,,,,,,,,,,,,,,,,left,0.51596,,,,,,,,1,10,27,0,1,,
,,,,,,,stim2/pa+20.wav,5c8be0dd542fbd0016924f5f,2020-12-31_12h02.00.784,Spanish_step2,2020.2.3,MacIntel,60,,,,,,,,,,,,,,,,,left,0.49577,,,,,,,,1,11,28,3,1,,
,,,,,,,stim2/pa+50.wav,5c8be0dd542fbd0016924f5f,2020-12-31_12h02.00.784,Spanish_step2,2020.2.3,MacIntel,60,,,,,,,,,,,,,,,,,left,0.83464,,,,,,,,1,12,29,9,1,,
,,,,,,,stim2/pa+25.wav,5c8be0dd542fbd0016924f5f,2020-12-31_12h02.00.784,Spanish_step2,2020.2.3,MacIntel,60,,,,,,,,,,,,,,,,,left,0.54896,,,,,,,,1,13,30,4,1,,
,,,,,,,stim2/pa+40.wav,5c8be0dd542fbd0016924f5f,2020-12-31_12h02.00.784,Spanish_step2,2020.2.3,MacIntel,60,,,,,,,,,,,,,,,,,left,0.84749,,,,,,,,1,14,31,7,1,,
,,,,,,,stim2/pa+30.wav,5c8be0dd542fbd0016924f5f,2020-12-31_12h02.00.784,Spanish_step2,2020.2.3,MacIntel,60,,,,,,,,,,,,,,,,,left,0.750615,,,,,,,,1,15,32,5,1,,
,,,,,,,stim2/pa-35.wav,5c8be0dd542fbd0016924f5f,2020-12-31_12h02.00.784,Spanish_step2,2020.2.3,MacIntel,60,,,,,,,,,,,,,,,,,right,0.536745,,,,,,,,1,16,33,16,1,,
,,,,,,,,5c8be0dd542fbd0016924f5f,2020-12-31_12h02.00.784,Spanish_step2,2020.2.3,MacIntel,60,,,,,,,,,,,,,,,,,,,,,,,,,,,,,,,space,12.195505
