resp.keys,resp.rt,trials.thisRepN,trials.thisTrialN,trials.thisN,trials.thisIndex,trials.ran,stimuli,participant,date,expName,psychopyVersion,OS,frameRate,gotResponse.keys,gotResponse.rt,resp_2.keys,resp_2.rt,trials_2.thisRepN,trials_2.thisTrialN,trials_2.thisN,trials_2.thisIndex,trials_2.ran,key_resp_3.keys,key_resp_3.rt,trials_4.thisRepN,trials_4.thisTrialN,trials_4.thisN,trials_4.thisIndex,trials_4.ran,resp_3.keys,resp_3.rt,trials_3.thisRepN,trials_3.thisTrialN,trials_3.thisN,trials_3.thisIndex,trials_3.ran,key_resp_2.keys,key_resp_2.rt,trials_5.thisRepN,trials_5.thisTrialN,trials_5.thisN,trials_5.thisIndex,trials_5.ran,key_resp.keys,key_resp.rt
right,1.06912,0,0,0,1,1,stim/VC_11.wav,5cf5fe247ce340001ac0bdd8,2021-02-24_15h55.42.454,Spanish_step2,2020.2.3,Linux x86_64,60,,,,,,,,,,,,,,,,,,,,,,,,,,,,,,,,
left,0.55764,0,1,1,0,1,stim/VC_01.wav,5cf5fe247ce340001ac0bdd8,2021-02-24_15h55.42.454,Spanish_step2,2020.2.3,Linux x86_64,60,,,,,,,,,,,,,,,,,,,,,,,,,,,,,,,,
,,,,,,,stim/VC_05.wav,5cf5fe247ce340001ac0bdd8,2021-02-24_15h55.42.454,Spanish_step2,2020.2.3,Linux x86_64,60,space,0.89565,right,0.89,0,0,0,4,1,,,,,,,,,,,,,,,,,,,,,,,
,,,,,,,stim/VC_10.wav,5cf5fe247ce340001ac0bdd8,2021-02-24_15h55.42.454,Spanish_step2,2020.2.3,Linux x86_64,60,,,right,0.588245,0,1,1,9,1,,,,,,,,,,,,,,,,,,,,,,,
,,,,,,,stim/VC_11.wav,5cf5fe247ce340001ac0bdd8,2021-02-24_15h55.42.454,Spanish_step2,2020.2.3,Linux x86_64,60,,,right,0.44534,0,2,2,10,1,,,,,,,,,,,,,,,,,,,,,,,
,,,,,,,stim/VC_07.wav,5cf5fe247ce340001ac0bdd8,2021-02-24_15h55.42.454,Spanish_step2,2020.2.3,Linux x86_64,60,,,right,0.32426,0,3,3,6,1,,,,,,,,,,,,,,,,,,,,,,,
,,,,,,,stim/VC_04.wav,5cf5fe247ce340001ac0bdd8,2021-02-24_15h55.42.454,Spanish_step2,2020.2.3,Linux x86_64,60,,,right,0.307145,0,4,4,3,1,,,,,,,,,,,,,,,,,,,,,,,
,,,,,,,stim/VC_01.wav,5cf5fe247ce340001ac0bdd8,2021-02-24_15h55.42.454,Spanish_step2,2020.2.3,Linux x86_64,60,,,right,0.33617,0,5,5,0,1,,,,,,,,,,,,,,,,,,,,,,,
,,,,,,,stim/VC_08.wav,5cf5fe247ce340001ac0bdd8,2021-02-24_15h55.42.454,Spanish_step2,2020.2.3,Linux x86_64,60,,,right,0.578065,0,6,6,7,1,,,,,,,,,,,,,,,,,,,,,,,
,,,,,,,stim/VC_03.wav,5cf5fe247ce340001ac0bdd8,2021-02-24_15h55.42.454,Spanish_step2,2020.2.3,Linux x86_64,60,,,left,0.52104,0,7,7,2,1,,,,,,,,,,,,,,,,,,,,,,,
,,,,,,,stim/VC_02.wav,5cf5fe247ce340001ac0bdd8,2021-02-24_15h55.42.454,Spanish_step2,2020.2.3,Linux x86_64,60,,,left,0.80172,0,8,8,1,1,,,,,,,,,,,,,,,,,,,,,,,
,,,,,,,stim/VC_09.wav,5cf5fe247ce340001ac0bdd8,2021-02-24_15h55.42.454,Spanish_step2,2020.2.3,Linux x86_64,60,,,right,0.500215,0,9,9,8,1,,,,,,,,,,,,,,,,,,,,,,,
,,,,,,,stim/VC_06.wav,5cf5fe247ce340001ac0bdd8,2021-02-24_15h55.42.454,Spanish_step2,2020.2.3,Linux x86_64,60,,,left,0.55558,0,10,10,5,1,,,,,,,,,,,,,,,,,,,,,,,
,,,,,,,stim/VC_09.wav,5cf5fe247ce340001ac0bdd8,2021-02-24_15h55.42.454,Spanish_step2,2020.2.3,Linux x86_64,60,,,left,0.457755,1,0,11,8,1,,,,,,,,,,,,,,,,,,,,,,,
,,,,,,,stim/VC_01.wav,5cf5fe247ce340001ac0bdd8,2021-02-24_15h55.42.454,Spanish_step2,2020.2.3,Linux x86_64,60,,,left,0.39501,1,1,12,0,1,,,,,,,,,,,,,,,,,,,,,,,
,,,,,,,stim/VC_02.wav,5cf5fe247ce340001ac0bdd8,2021-02-24_15h55.42.454,Spanish_step2,2020.2.3,Linux x86_64,60,,,left,0.370965,1,2,13,1,1,,,,,,,,,,,,,,,,,,,,,,,
,,,,,,,stim/VC_11.wav,5cf5fe247ce340001ac0bdd8,2021-02-24_15h55.42.454,Spanish_step2,2020.2.3,Linux x86_64,60,,,right,0.611195,1,3,14,10,1,,,,,,,,,,,,,,,,,,,,,,,
,,,,,,,stim/VC_06.wav,5cf5fe247ce340001ac0bdd8,2021-02-24_15h55.42.454,Spanish_step2,2020.2.3,Linux x86_64,60,,,right,0.42591,1,4,15,5,1,,,,,,,,,,,,,,,,,,,,,,,
,,,,,,,stim/VC_04.wav,5cf5fe247ce340001ac0bdd8,2021-02-24_15h55.42.454,Spanish_step2,2020.2.3,Linux x86_64,60,,,right,0.716015,1,5,16,3,1,,,,,,,,,,,,,,,,,,,,,,,
,,,,,,,stim/VC_10.wav,5cf5fe247ce340001ac0bdd8,2021-02-24_15h55.42.454,Spanish_step2,2020.2.3,Linux x86_64,60,,,right,0.43776,1,6,17,9,1,,,,,,,,,,,,,,,,,,,,,,,
,,,,,,,stim/VC_08.wav,5cf5fe247ce340001ac0bdd8,2021-02-24_15h55.42.454,Spanish_step2,2020.2.3,Linux x86_64,60,,,right,0.36785,1,7,18,7,1,,,,,,,,,,,,,,,,,,,,,,,
,,,,,,,stim/VC_05.wav,5cf5fe247ce340001ac0bdd8,2021-02-24_15h55.42.454,Spanish_step2,2020.2.3,Linux x86_64,60,,,right,0.3874,1,8,19,4,1,,,,,,,,,,,,,,,,,,,,,,,
,,,,,,,stim/VC_03.wav,5cf5fe247ce340001ac0bdd8,2021-02-24_15h55.42.454,Spanish_step2,2020.2.3,Linux x86_64,60,,,right,0.820175,1,9,20,2,1,,,,,,,,,,,,,,,,,,,,,,,
,,,,,,,stim/VC_07.wav,5cf5fe247ce340001ac0bdd8,2021-02-24_15h55.42.454,Spanish_step2,2020.2.3,Linux x86_64,60,,,right,0.791375,1,10,21,6,1,,,,,,,,,,,,,,,,,,,,,,,
,,,,,,,stim/VC_06.wav,5cf5fe247ce340001ac0bdd8,2021-02-24_15h55.42.454,Spanish_step2,2020.2.3,Linux x86_64,60,,,right,0.50454,2,0,22,5,1,,,,,,,,,,,,,,,,,,,,,,,
,,,,,,,stim/VC_08.wav,5cf5fe247ce340001ac0bdd8,2021-02-24_15h55.42.454,Spanish_step2,2020.2.3,Linux x86_64,60,,,right,0.49657,2,1,23,7,1,,,,,,,,,,,,,,,,,,,,,,,
,,,,,,,stim/VC_10.wav,5cf5fe247ce340001ac0bdd8,2021-02-24_15h55.42.454,Spanish_step2,2020.2.3,Linux x86_64,60,,,right,0.506115,2,2,24,9,1,,,,,,,,,,,,,,,,,,,,,,,
,,,,,,,stim/VC_04.wav,5cf5fe247ce340001ac0bdd8,2021-02-24_15h55.42.454,Spanish_step2,2020.2.3,Linux x86_64,60,,,right,0.484435,2,3,25,3,1,,,,,,,,,,,,,,,,,,,,,,,
,,,,,,,stim/VC_05.wav,5cf5fe247ce340001ac0bdd8,2021-02-24_15h55.42.454,Spanish_step2,2020.2.3,Linux x86_64,60,,,right,0.43842,2,4,26,4,1,,,,,,,,,,,,,,,,,,,,,,,
,,,,,,,stim/VC_07.wav,5cf5fe247ce340001ac0bdd8,2021-02-24_15h55.42.454,Spanish_step2,2020.2.3,Linux x86_64,60,,,right,0.436905,2,5,27,6,1,,,,,,,,,,,,,,,,,,,,,,,
,,,,,,,stim/VC_03.wav,5cf5fe247ce340001ac0bdd8,2021-02-24_15h55.42.454,Spanish_step2,2020.2.3,Linux x86_64,60,,,left,0.675585,2,6,28,2,1,,,,,,,,,,,,,,,,,,,,,,,
,,,,,,,stim/VC_11.wav,5cf5fe247ce340001ac0bdd8,2021-02-24_15h55.42.454,Spanish_step2,2020.2.3,Linux x86_64,60,,,right,0.48515,2,7,29,10,1,,,,,,,,,,,,,,,,,,,,,,,
,,,,,,,stim/VC_02.wav,5cf5fe247ce340001ac0bdd8,2021-02-24_15h55.42.454,Spanish_step2,2020.2.3,Linux x86_64,60,,,left,0.56811,2,8,30,1,1,,,,,,,,,,,,,,,,,,,,,,,
,,,,,,,stim/VC_09.wav,5cf5fe247ce340001ac0bdd8,2021-02-24_15h55.42.454,Spanish_step2,2020.2.3,Linux x86_64,60,,,right,0.38655,2,9,31,8,1,,,,,,,,,,,,,,,,,,,,,,,
,,,,,,,stim/VC_01.wav,5cf5fe247ce340001ac0bdd8,2021-02-24_15h55.42.454,Spanish_step2,2020.2.3,Linux x86_64,60,,,left,0.50089,2,10,32,0,1,,,,,,,,,,,,,,,,,,,,,,,
,,,,,,,stim/VC_03.wav,5cf5fe247ce340001ac0bdd8,2021-02-24_15h55.42.454,Spanish_step2,2020.2.3,Linux x86_64,60,,,left,0.80179,,,,,,7,2.852045,0,0,0,2,1,,,,,,,,,,,,,,,,
,,,,,,,stim/VC_10.wav,5cf5fe247ce340001ac0bdd8,2021-02-24_15h55.42.454,Spanish_step2,2020.2.3,Linux x86_64,60,,,right,0.755345,,,,,,,,0,1,1,9,1,,,,,,,,,,,,,,,,
,,,,,,,stim/VC_05.wav,5cf5fe247ce340001ac0bdd8,2021-02-24_15h55.42.454,Spanish_step2,2020.2.3,Linux x86_64,60,,,right,0.66786,,,,,,,,0,2,2,4,1,,,,,,,,,,,,,,,,
,,,,,,,stim/VC_01.wav,5cf5fe247ce340001ac0bdd8,2021-02-24_15h55.42.454,Spanish_step2,2020.2.3,Linux x86_64,60,,,left,0.51991,,,,,,,,0,3,3,0,1,,,,,,,,,,,,,,,,
,,,,,,,stim/VC_06.wav,5cf5fe247ce340001ac0bdd8,2021-02-24_15h55.42.454,Spanish_step2,2020.2.3,Linux x86_64,60,,,right,0.46798,,,,,,,,0,4,4,5,1,,,,,,,,,,,,,,,,
,,,,,,,stim/VC_11.wav,5cf5fe247ce340001ac0bdd8,2021-02-24_15h55.42.454,Spanish_step2,2020.2.3,Linux x86_64,60,,,right,0.41834,,,,,,,,0,5,5,10,1,,,,,,,,,,,,,,,,
,,,,,,,stim/VC_02.wav,5cf5fe247ce340001ac0bdd8,2021-02-24_15h55.42.454,Spanish_step2,2020.2.3,Linux x86_64,60,,,left,0.551785,,,,,,,,0,6,6,1,1,,,,,,,,,,,,,,,,
,,,,,,,stim/VC_09.wav,5cf5fe247ce340001ac0bdd8,2021-02-24_15h55.42.454,Spanish_step2,2020.2.3,Linux x86_64,60,,,right,0.43169,,,,,,,,0,7,7,8,1,,,,,,,,,,,,,,,,
,,,,,,,stim/VC_08.wav,5cf5fe247ce340001ac0bdd8,2021-02-24_15h55.42.454,Spanish_step2,2020.2.3,Linux x86_64,60,,,right,0.35286,,,,,,,,0,8,8,7,1,,,,,,,,,,,,,,,,
,,,,,,,stim/VC_07.wav,5cf5fe247ce340001ac0bdd8,2021-02-24_15h55.42.454,Spanish_step2,2020.2.3,Linux x86_64,60,,,right,0.405695,,,,,,,,0,9,9,6,1,,,,,,,,,,,,,,,,
,,,,,,,stim/VC_04.wav,5cf5fe247ce340001ac0bdd8,2021-02-24_15h55.42.454,Spanish_step2,2020.2.3,Linux x86_64,60,,,right,0.369565,,,,,,,,0,10,10,3,1,,,,,,,,,,,,,,,,
,,,,,,,stim/VC_10.wav,5cf5fe247ce340001ac0bdd8,2021-02-24_15h55.42.454,Spanish_step2,2020.2.3,Linux x86_64,60,,,right,0.6003,,,,,,,,1,0,11,9,1,,,,,,,,,,,,,,,,
,,,,,,,stim/VC_06.wav,5cf5fe247ce340001ac0bdd8,2021-02-24_15h55.42.454,Spanish_step2,2020.2.3,Linux x86_64,60,,,right,0.399825,,,,,,,,1,1,12,5,1,,,,,,,,,,,,,,,,
,,,,,,,stim/VC_11.wav,5cf5fe247ce340001ac0bdd8,2021-02-24_15h55.42.454,Spanish_step2,2020.2.3,Linux x86_64,60,,,right,0.42011,,,,,,,,1,2,13,10,1,,,,,,,,,,,,,,,,
,,,,,,,stim/VC_02.wav,5cf5fe247ce340001ac0bdd8,2021-02-24_15h55.42.454,Spanish_step2,2020.2.3,Linux x86_64,60,,,left,0.5704,,,,,,,,1,3,14,1,1,,,,,,,,,,,,,,,,
,,,,,,,stim/VC_04.wav,5cf5fe247ce340001ac0bdd8,2021-02-24_15h55.42.454,Spanish_step2,2020.2.3,Linux x86_64,60,,,left,0.526865,,,,,,,,1,4,15,3,1,,,,,,,,,,,,,,,,
,,,,,,,stim/VC_09.wav,5cf5fe247ce340001ac0bdd8,2021-02-24_15h55.42.454,Spanish_step2,2020.2.3,Linux x86_64,60,,,right,0.408945,,,,,,,,1,5,16,8,1,,,,,,,,,,,,,,,,
,,,,,,,stim/VC_08.wav,5cf5fe247ce340001ac0bdd8,2021-02-24_15h55.42.454,Spanish_step2,2020.2.3,Linux x86_64,60,,,right,0.35744,,,,,,,,1,6,17,7,1,,,,,,,,,,,,,,,,
,,,,,,,stim/VC_05.wav,5cf5fe247ce340001ac0bdd8,2021-02-24_15h55.42.454,Spanish_step2,2020.2.3,Linux x86_64,60,,,left,0.470415,,,,,,,,1,7,18,4,1,,,,,,,,,,,,,,,,
,,,,,,,stim/VC_07.wav,5cf5fe247ce340001ac0bdd8,2021-02-24_15h55.42.454,Spanish_step2,2020.2.3,Linux x86_64,60,,,right,0.44789,,,,,,,,1,8,19,6,1,,,,,,,,,,,,,,,,
,,,,,,,stim/VC_01.wav,5cf5fe247ce340001ac0bdd8,2021-02-24_15h55.42.454,Spanish_step2,2020.2.3,Linux x86_64,60,,,left,0.55043,,,,,,,,1,9,20,0,1,,,,,,,,,,,,,,,,
,,,,,,,stim/VC_03.wav,5cf5fe247ce340001ac0bdd8,2021-02-24_15h55.42.454,Spanish_step2,2020.2.3,Linux x86_64,60,,,left,0.556715,,,,,,,,1,10,21,2,1,,,,,,,,,,,,,,,,
,,,,,,,stim2/pa+35.wav,5cf5fe247ce340001ac0bdd8,2021-02-24_15h55.42.454,Spanish_step2,2020.2.3,Linux x86_64,60,,,,,,,,,,,,,,,,,right,1.823545,0,0,0,6,1,,,,,,,,,
,,,,,,,stim2/pa+05.wav,5cf5fe247ce340001ac0bdd8,2021-02-24_15h55.42.454,Spanish_step2,2020.2.3,Linux x86_64,60,,,,,,,,,,,,,,,,,left,0.59051,0,1,1,0,1,,,,,,,,,
,,,,,,,stim2/pa+10.wav,5cf5fe247ce340001ac0bdd8,2021-02-24_15h55.42.454,Spanish_step2,2020.2.3,Linux x86_64,60,,,,,,,,,,,,,,,,,left,0.42431,0,2,2,1,1,,,,,,,,,
,,,,,,,stim2/pa-35.wav,5cf5fe247ce340001ac0bdd8,2021-02-24_15h55.42.454,Spanish_step2,2020.2.3,Linux x86_64,60,,,,,,,,,,,,,,,,,right,0.54492,0,3,3,16,1,,,,,,,,,
,,,,,,,stim2/pa+15.wav,5cf5fe247ce340001ac0bdd8,2021-02-24_15h55.42.454,Spanish_step2,2020.2.3,Linux x86_64,60,,,,,,,,,,,,,,,,,left,0.489095,0,4,4,2,1,,,,,,,,,
,,,,,,,stim2/pa-20.wav,5cf5fe247ce340001ac0bdd8,2021-02-24_15h55.42.454,Spanish_step2,2020.2.3,Linux x86_64,60,,,,,,,,,,,,,,,,,right,0.571685,0,5,5,13,1,,,,,,,,,
,,,,,,,stim2/pa+25.wav,5cf5fe247ce340001ac0bdd8,2021-02-24_15h55.42.454,Spanish_step2,2020.2.3,Linux x86_64,60,,,,,,,,,,,,,,,,,left,0.47255,0,6,6,4,1,,,,,,,,,
,,,,,,,stim2/pa+30.wav,5cf5fe247ce340001ac0bdd8,2021-02-24_15h55.42.454,Spanish_step2,2020.2.3,Linux x86_64,60,,,,,,,,,,,,,,,,,left,0.557375,0,7,7,5,1,,,,,,,,,
,,,,,,,stim2/pa-10.wav,5cf5fe247ce340001ac0bdd8,2021-02-24_15h55.42.454,Spanish_step2,2020.2.3,Linux x86_64,60,,,,,,,,,,,,,,,,,right,0.66688,0,8,8,11,1,,,,,,,,,
,,,,,,,stim2/pa+40.wav,5cf5fe247ce340001ac0bdd8,2021-02-24_15h55.42.454,Spanish_step2,2020.2.3,Linux x86_64,60,,,,,,,,,,,,,,,,,left,0.3895,0,9,9,7,1,,,,,,,,,
,,,,,,,stim2/pa+50.wav,5cf5fe247ce340001ac0bdd8,2021-02-24_15h55.42.454,Spanish_step2,2020.2.3,Linux x86_64,60,,,,,,,,,,,,,,,,,left,0.539185,0,10,10,9,1,,,,,,,,,
,,,,,,,stim2/pa+20.wav,5cf5fe247ce340001ac0bdd8,2021-02-24_15h55.42.454,Spanish_step2,2020.2.3,Linux x86_64,60,,,,,,,,,,,,,,,,,left,0.56863,0,11,11,3,1,,,,,,,,,
,,,,,,,stim2/pa-15.wav,5cf5fe247ce340001ac0bdd8,2021-02-24_15h55.42.454,Spanish_step2,2020.2.3,Linux x86_64,60,,,,,,,,,,,,,,,,,right,0.435255,0,12,12,12,1,,,,,,,,,
,,,,,,,stim2/pa-05.wav,5cf5fe247ce340001ac0bdd8,2021-02-24_15h55.42.454,Spanish_step2,2020.2.3,Linux x86_64,60,,,,,,,,,,,,,,,,,left,0.58758,0,13,13,10,1,,,,,,,,,
,,,,,,,stim2/pa-25.wav,5cf5fe247ce340001ac0bdd8,2021-02-24_15h55.42.454,Spanish_step2,2020.2.3,Linux x86_64,60,,,,,,,,,,,,,,,,,right,0.51798,0,14,14,14,1,,,,,,,,,
,,,,,,,stim2/pa-30.wav,5cf5fe247ce340001ac0bdd8,2021-02-24_15h55.42.454,Spanish_step2,2020.2.3,Linux x86_64,60,,,,,,,,,,,,,,,,,right,0.403745,0,15,15,15,1,,,,,,,,,
,,,,,,,stim2/pa+45.wav,5cf5fe247ce340001ac0bdd8,2021-02-24_15h55.42.454,Spanish_step2,2020.2.3,Linux x86_64,60,,,,,,,,,,,,,,,,,left,0.635445,0,16,16,8,1,,,,,,,,,
,,,,,,,stim2/pa+50.wav,5cf5fe247ce340001ac0bdd8,2021-02-24_15h55.42.454,Spanish_step2,2020.2.3,Linux x86_64,60,,,,,,,,,,,,,,,,,left,0.485335,1,0,17,9,1,,,,,,,,,
,,,,,,,stim2/pa-20.wav,5cf5fe247ce340001ac0bdd8,2021-02-24_15h55.42.454,Spanish_step2,2020.2.3,Linux x86_64,60,,,,,,,,,,,,,,,,,right,0.38549,1,1,18,13,1,,,,,,,,,
,,,,,,,stim2/pa-10.wav,5cf5fe247ce340001ac0bdd8,2021-02-24_15h55.42.454,Spanish_step2,2020.2.3,Linux x86_64,60,,,,,,,,,,,,,,,,,right,0.285725,1,2,19,11,1,,,,,,,,,
,,,,,,,stim2/pa+45.wav,5cf5fe247ce340001ac0bdd8,2021-02-24_15h55.42.454,Spanish_step2,2020.2.3,Linux x86_64,60,,,,,,,,,,,,,,,,,right,0.452545,1,3,20,8,1,,,,,,,,,
,,,,,,,stim2/pa-30.wav,5cf5fe247ce340001ac0bdd8,2021-02-24_15h55.42.454,Spanish_step2,2020.2.3,Linux x86_64,60,,,,,,,,,,,,,,,,,right,0.58587,1,4,21,15,1,,,,,,,,,
,,,,,,,stim2/pa-35.wav,5cf5fe247ce340001ac0bdd8,2021-02-24_15h55.42.454,Spanish_step2,2020.2.3,Linux x86_64,60,,,,,,,,,,,,,,,,,right,0.304755,1,5,22,16,1,,,,,,,,,
,,,,,,,stim2/pa-05.wav,5cf5fe247ce340001ac0bdd8,2021-02-24_15h55.42.454,Spanish_step2,2020.2.3,Linux x86_64,60,,,,,,,,,,,,,,,,,right,0.28352,1,6,23,10,1,,,,,,,,,
,,,,,,,stim2/pa+20.wav,5cf5fe247ce340001ac0bdd8,2021-02-24_15h55.42.454,Spanish_step2,2020.2.3,Linux x86_64,60,,,,,,,,,,,,,,,,,right,0.31312,1,7,24,3,1,,,,,,,,,
,,,,,,,stim2/pa+30.wav,5cf5fe247ce340001ac0bdd8,2021-02-24_15h55.42.454,Spanish_step2,2020.2.3,Linux x86_64,60,,,,,,,,,,,,,,,,,right,0.30695,1,8,25,5,1,,,,,,,,,
,,,,,,,stim2/pa+05.wav,5cf5fe247ce340001ac0bdd8,2021-02-24_15h55.42.454,Spanish_step2,2020.2.3,Linux x86_64,60,,,,,,,,,,,,,,,,,right,0.28941,1,9,26,0,1,,,,,,,,,
,,,,,,,stim2/pa+25.wav,5cf5fe247ce340001ac0bdd8,2021-02-24_15h55.42.454,Spanish_step2,2020.2.3,Linux x86_64,60,,,,,,,,,,,,,,,,,right,0.32636,1,10,27,4,1,,,,,,,,,
,,,,,,,stim2/pa+40.wav,5cf5fe247ce340001ac0bdd8,2021-02-24_15h55.42.454,Spanish_step2,2020.2.3,Linux x86_64,60,,,,,,,,,,,,,,,,,right,0.2838,1,11,28,7,1,,,,,,,,,
,,,,,,,stim2/pa-15.wav,5cf5fe247ce340001ac0bdd8,2021-02-24_15h55.42.454,Spanish_step2,2020.2.3,Linux x86_64,60,,,,,,,,,,,,,,,,,right,0.26573,1,12,29,12,1,,,,,,,,,
,,,,,,,stim2/pa+10.wav,5cf5fe247ce340001ac0bdd8,2021-02-24_15h55.42.454,Spanish_step2,2020.2.3,Linux x86_64,60,,,,,,,,,,,,,,,,,right,0.32417,1,13,30,1,1,,,,,,,,,
,,,,,,,stim2/pa-25.wav,5cf5fe247ce340001ac0bdd8,2021-02-24_15h55.42.454,Spanish_step2,2020.2.3,Linux x86_64,60,,,,,,,,,,,,,,,,,right,0.388935,1,14,31,14,1,,,,,,,,,
,,,,,,,stim2/pa+15.wav,5cf5fe247ce340001ac0bdd8,2021-02-24_15h55.42.454,Spanish_step2,2020.2.3,Linux x86_64,60,,,,,,,,,,,,,,,,,right,0.28556,1,15,32,2,1,,,,,,,,,
,,,,,,,stim2/pa+35.wav,5cf5fe247ce340001ac0bdd8,2021-02-24_15h55.42.454,Spanish_step2,2020.2.3,Linux x86_64,60,,,,,,,,,,,,,,,,,right,0.258075,1,16,33,6,1,,,,,,,,,
,,,,,,,stim2/pa+20.wav,5cf5fe247ce340001ac0bdd8,2021-02-24_15h55.42.454,Spanish_step2,2020.2.3,Linux x86_64,60,,,,,,,,,,,,,,,,,right,0.27699,2,0,34,3,1,,,,,,,,,
,,,,,,,stim2/pa+15.wav,5cf5fe247ce340001ac0bdd8,2021-02-24_15h55.42.454,Spanish_step2,2020.2.3,Linux x86_64,60,,,,,,,,,,,,,,,,,left,0.625525,2,1,35,2,1,,,,,,,,,
,,,,,,,stim2/pa-15.wav,5cf5fe247ce340001ac0bdd8,2021-02-24_15h55.42.454,Spanish_step2,2020.2.3,Linux x86_64,60,,,,,,,,,,,,,,,,,right,0.60001,2,2,36,12,1,,,,,,,,,
,,,,,,,stim2/pa+05.wav,5cf5fe247ce340001ac0bdd8,2021-02-24_15h55.42.454,Spanish_step2,2020.2.3,Linux x86_64,60,,,,,,,,,,,,,,,,,left,0.61955,2,3,37,0,1,,,,,,,,,
,,,,,,,stim2/pa+25.wav,5cf5fe247ce340001ac0bdd8,2021-02-24_15h55.42.454,Spanish_step2,2020.2.3,Linux x86_64,60,,,,,,,,,,,,,,,,,left,0.775995,2,4,38,4,1,,,,,,,,,
,,,,,,,stim2/pa+30.wav,5cf5fe247ce340001ac0bdd8,2021-02-24_15h55.42.454,Spanish_step2,2020.2.3,Linux x86_64,60,,,,,,,,,,,,,,,,,right,0.692085,2,5,39,5,1,,,,,,,,,
,,,,,,,stim2/pa-10.wav,5cf5fe247ce340001ac0bdd8,2021-02-24_15h55.42.454,Spanish_step2,2020.2.3,Linux x86_64,60,,,,,,,,,,,,,,,,,right,0.440755,2,6,40,11,1,,,,,,,,,
,,,,,,,stim2/pa-25.wav,5cf5fe247ce340001ac0bdd8,2021-02-24_15h55.42.454,Spanish_step2,2020.2.3,Linux x86_64,60,,,,,,,,,,,,,,,,,right,0.277545,2,7,41,14,1,,,,,,,,,
,,,,,,,stim2/pa+10.wav,5cf5fe247ce340001ac0bdd8,2021-02-24_15h55.42.454,Spanish_step2,2020.2.3,Linux x86_64,60,,,,,,,,,,,,,,,,,right,0.30387,2,8,42,1,1,,,,,,,,,
,,,,,,,stim2/pa+35.wav,5cf5fe247ce340001ac0bdd8,2021-02-24_15h55.42.454,Spanish_step2,2020.2.3,Linux x86_64,60,,,,,,,,,,,,,,,,,left,0.489375,2,9,43,6,1,,,,,,,,,
,,,,,,,stim2/pa+40.wav,5cf5fe247ce340001ac0bdd8,2021-02-24_15h55.42.454,Spanish_step2,2020.2.3,Linux x86_64,60,,,,,,,,,,,,,,,,,left,0.833405,2,10,44,7,1,,,,,,,,,
,,,,,,,stim2/pa-35.wav,5cf5fe247ce340001ac0bdd8,2021-02-24_15h55.42.454,Spanish_step2,2020.2.3,Linux x86_64,60,,,,,,,,,,,,,,,,,right,0.553065,2,11,45,16,1,,,,,,,,,
,,,,,,,stim2/pa-05.wav,5cf5fe247ce340001ac0bdd8,2021-02-24_15h55.42.454,Spanish_step2,2020.2.3,Linux x86_64,60,,,,,,,,,,,,,,,,,right,0.48522,2,12,46,10,1,,,,,,,,,
,,,,,,,stim2/pa-30.wav,5cf5fe247ce340001ac0bdd8,2021-02-24_15h55.42.454,Spanish_step2,2020.2.3,Linux x86_64,60,,,,,,,,,,,,,,,,,right,0.46815,2,13,47,15,1,,,,,,,,,
,,,,,,,stim2/pa+50.wav,5cf5fe247ce340001ac0bdd8,2021-02-24_15h55.42.454,Spanish_step2,2020.2.3,Linux x86_64,60,,,,,,,,,,,,,,,,,left,0.551745,2,14,48,9,1,,,,,,,,,
,,,,,,,stim2/pa-20.wav,5cf5fe247ce340001ac0bdd8,2021-02-24_15h55.42.454,Spanish_step2,2020.2.3,Linux x86_64,60,,,,,,,,,,,,,,,,,right,0.34352,2,15,49,13,1,,,,,,,,,
,,,,,,,stim2/pa+45.wav,5cf5fe247ce340001ac0bdd8,2021-02-24_15h55.42.454,Spanish_step2,2020.2.3,Linux x86_64,60,,,,,,,,,,,,,,,,,left,0.503385,2,16,50,8,1,,,,,,,,,
,,,,,,,stim2/pa+50.wav,5cf5fe247ce340001ac0bdd8,2021-02-24_15h55.42.454,Spanish_step2,2020.2.3,Linux x86_64,60,,,,,,,,,,,,,,,,,left,0.767355,,,,,,z,1.359025,0,0,0,9,1,,
,,,,,,,stim2/pa-05.wav,5cf5fe247ce340001ac0bdd8,2021-02-24_15h55.42.454,Spanish_step2,2020.2.3,Linux x86_64,60,,,,,,,,,,,,,,,,,right,0.38875,,,,,,,,0,1,1,10,1,,
,,,,,,,stim2/pa+10.wav,5cf5fe247ce340001ac0bdd8,2021-02-24_15h55.42.454,Spanish_step2,2020.2.3,Linux x86_64,60,,,,,,,,,,,,,,,,,left,0.316,,,,,,,,0,2,2,1,1,,
,,,,,,,stim2/pa-20.wav,5cf5fe247ce340001ac0bdd8,2021-02-24_15h55.42.454,Spanish_step2,2020.2.3,Linux x86_64,60,,,,,,,,,,,,,,,,,right,0.300435,,,,,,,,0,3,3,13,1,,
,,,,,,,stim2/pa-15.wav,5cf5fe247ce340001ac0bdd8,2021-02-24_15h55.42.454,Spanish_step2,2020.2.3,Linux x86_64,60,,,,,,,,,,,,,,,,,left,0.32634,,,,,,,,0,4,4,12,1,,
,,,,,,,stim2/pa+20.wav,5cf5fe247ce340001ac0bdd8,2021-02-24_15h55.42.454,Spanish_step2,2020.2.3,Linux x86_64,60,,,,,,,,,,,,,,,,,right,0.378505,,,,,,,,0,5,5,3,1,,
,,,,,,,stim2/pa+45.wav,5cf5fe247ce340001ac0bdd8,2021-02-24_15h55.42.454,Spanish_step2,2020.2.3,Linux x86_64,60,,,,,,,,,,,,,,,,,left,0.75971,,,,,,,,0,6,6,8,1,,
,,,,,,,stim2/pa+40.wav,5cf5fe247ce340001ac0bdd8,2021-02-24_15h55.42.454,Spanish_step2,2020.2.3,Linux x86_64,60,,,,,,,,,,,,,,,,,left,0.505705,,,,,,,,0,7,7,7,1,,
,,,,,,,stim2/pa-25.wav,5cf5fe247ce340001ac0bdd8,2021-02-24_15h55.42.454,Spanish_step2,2020.2.3,Linux x86_64,60,,,,,,,,,,,,,,,,,right,0.356395,,,,,,,,0,8,8,14,1,,
,,,,,,,stim2/pa+30.wav,5cf5fe247ce340001ac0bdd8,2021-02-24_15h55.42.454,Spanish_step2,2020.2.3,Linux x86_64,60,,,,,,,,,,,,,,,,,left,0.650325,,,,,,,,0,9,9,5,1,,
,,,,,,,stim2/pa-30.wav,5cf5fe247ce340001ac0bdd8,2021-02-24_15h55.42.454,Spanish_step2,2020.2.3,Linux x86_64,60,,,,,,,,,,,,,,,,,right,0.32405,,,,,,,,0,10,10,15,1,,
,,,,,,,stim2/pa+25.wav,5cf5fe247ce340001ac0bdd8,2021-02-24_15h55.42.454,Spanish_step2,2020.2.3,Linux x86_64,60,,,,,,,,,,,,,,,,,left,0.387185,,,,,,,,0,11,11,4,1,,
,,,,,,,stim2/pa+35.wav,5cf5fe247ce340001ac0bdd8,2021-02-24_15h55.42.454,Spanish_step2,2020.2.3,Linux x86_64,60,,,,,,,,,,,,,,,,,left,0.550545,,,,,,,,0,12,12,6,1,,
,,,,,,,stim2/pa-35.wav,5cf5fe247ce340001ac0bdd8,2021-02-24_15h55.42.454,Spanish_step2,2020.2.3,Linux x86_64,60,,,,,,,,,,,,,,,,,right,0.411355,,,,,,,,0,13,13,16,1,,
,,,,,,,stim2/pa-10.wav,5cf5fe247ce340001ac0bdd8,2021-02-24_15h55.42.454,Spanish_step2,2020.2.3,Linux x86_64,60,,,,,,,,,,,,,,,,,right,0.56101,,,,,,,,0,14,14,11,1,,
,,,,,,,stim2/pa+05.wav,5cf5fe247ce340001ac0bdd8,2021-02-24_15h55.42.454,Spanish_step2,2020.2.3,Linux x86_64,60,,,,,,,,,,,,,,,,,right,0.47524,,,,,,,,0,15,15,0,1,,
,,,,,,,stim2/pa+15.wav,5cf5fe247ce340001ac0bdd8,2021-02-24_15h55.42.454,Spanish_step2,2020.2.3,Linux x86_64,60,,,,,,,,,,,,,,,,,left,0.64708,,,,,,,,0,16,16,2,1,,
,,,,,,,stim2/pa-20.wav,5cf5fe247ce340001ac0bdd8,2021-02-24_15h55.42.454,Spanish_step2,2020.2.3,Linux x86_64,60,,,,,,,,,,,,,,,,,right,0.51815,,,,,,,,1,0,17,13,1,,
,,,,,,,stim2/pa-25.wav,5cf5fe247ce340001ac0bdd8,2021-02-24_15h55.42.454,Spanish_step2,2020.2.3,Linux x86_64,60,,,,,,,,,,,,,,,,,right,0.47164,,,,,,,,1,1,18,14,1,,
,,,,,,,stim2/pa+30.wav,5cf5fe247ce340001ac0bdd8,2021-02-24_15h55.42.454,Spanish_step2,2020.2.3,Linux x86_64,60,,,,,,,,,,,,,,,,,left,0.528395,,,,,,,,1,2,19,5,1,,
,,,,,,,stim2/pa-30.wav,5cf5fe247ce340001ac0bdd8,2021-02-24_15h55.42.454,Spanish_step2,2020.2.3,Linux x86_64,60,,,,,,,,,,,,,,,,,right,0.328105,,,,,,,,1,3,20,15,1,,
,,,,,,,stim2/pa+45.wav,5cf5fe247ce340001ac0bdd8,2021-02-24_15h55.42.454,Spanish_step2,2020.2.3,Linux x86_64,60,,,,,,,,,,,,,,,,,left,0.61837,,,,,,,,1,4,21,8,1,,
,,,,,,,stim2/pa+35.wav,5cf5fe247ce340001ac0bdd8,2021-02-24_15h55.42.454,Spanish_step2,2020.2.3,Linux x86_64,60,,,,,,,,,,,,,,,,,left,0.629145,,,,,,,,1,5,22,6,1,,
,,,,,,,stim2/pa+20.wav,5cf5fe247ce340001ac0bdd8,2021-02-24_15h55.42.454,Spanish_step2,2020.2.3,Linux x86_64,60,,,,,,,,,,,,,,,,,left,0.55991,,,,,,,,1,6,23,3,1,,
,,,,,,,stim2/pa-05.wav,5cf5fe247ce340001ac0bdd8,2021-02-24_15h55.42.454,Spanish_step2,2020.2.3,Linux x86_64,60,,,,,,,,,,,,,,,,,right,0.46775,,,,,,,,1,7,24,10,1,,
,,,,,,,stim2/pa+50.wav,5cf5fe247ce340001ac0bdd8,2021-02-24_15h55.42.454,Spanish_step2,2020.2.3,Linux x86_64,60,,,,,,,,,,,,,,,,,left,0.60835,,,,,,,,1,8,25,9,1,,
,,,,,,,stim2/pa+05.wav,5cf5fe247ce340001ac0bdd8,2021-02-24_15h55.42.454,Spanish_step2,2020.2.3,Linux x86_64,60,,,,,,,,,,,,,,,,,left,0.50695,,,,,,,,1,9,26,0,1,,
,,,,,,,stim2/pa-15.wav,5cf5fe247ce340001ac0bdd8,2021-02-24_15h55.42.454,Spanish_step2,2020.2.3,Linux x86_64,60,,,,,,,,,,,,,,,,,right,0.37259,,,,,,,,1,10,27,12,1,,
,,,,,,,stim2/pa-10.wav,5cf5fe247ce340001ac0bdd8,2021-02-24_15h55.42.454,Spanish_step2,2020.2.3,Linux x86_64,60,,,,,,,,,,,,,,,,,right,0.47099,,,,,,,,1,11,28,11,1,,
,,,,,,,stim2/pa-35.wav,5cf5fe247ce340001ac0bdd8,2021-02-24_15h55.42.454,Spanish_step2,2020.2.3,Linux x86_64,60,,,,,,,,,,,,,,,,,right,0.37396,,,,,,,,1,12,29,16,1,,
,,,,,,,stim2/pa+40.wav,5cf5fe247ce340001ac0bdd8,2021-02-24_15h55.42.454,Spanish_step2,2020.2.3,Linux x86_64,60,,,,,,,,,,,,,,,,,right,0.43928,,,,,,,,1,13,30,7,1,,
,,,,,,,stim2/pa+10.wav,5cf5fe247ce340001ac0bdd8,2021-02-24_15h55.42.454,Spanish_step2,2020.2.3,Linux x86_64,60,,,,,,,,,,,,,,,,,left,0.80406,,,,,,,,1,14,31,1,1,,
,,,,,,,stim2/pa+25.wav,5cf5fe247ce340001ac0bdd8,2021-02-24_15h55.42.454,Spanish_step2,2020.2.3,Linux x86_64,60,,,,,,,,,,,,,,,,,left,0.476685,,,,,,,,1,15,32,4,1,,
,,,,,,,stim2/pa+15.wav,5cf5fe247ce340001ac0bdd8,2021-02-24_15h55.42.454,Spanish_step2,2020.2.3,Linux x86_64,60,,,,,,,,,,,,,,,,,left,0.400615,,,,,,,,1,16,33,2,1,,
,,,,,,,,5cf5fe247ce340001ac0bdd8,2021-02-24_15h55.42.454,Spanish_step2,2020.2.3,Linux x86_64,60,,,,,,,,,,,,,,,,,,,,,,,,,,,,,,,space,5.607315
