resp.keys,resp.rt,trials.thisRepN,trials.thisTrialN,trials.thisN,trials.thisIndex,trials.ran,stimuli,participant,date,expName,psychopyVersion,OS,frameRate,gotResponse.keys,gotResponse.rt,resp_2.keys,resp_2.rt,trials_2.thisRepN,trials_2.thisTrialN,trials_2.thisN,trials_2.thisIndex,trials_2.ran,key_resp_3.keys,key_resp_3.rt,trials_4.thisRepN,trials_4.thisTrialN,trials_4.thisN,trials_4.thisIndex,trials_4.ran,resp_3.keys,resp_3.rt,trials_3.thisRepN,trials_3.thisTrialN,trials_3.thisN,trials_3.thisIndex,trials_3.ran,key_resp_2.keys,key_resp_2.rt,trials_5.thisRepN,trials_5.thisTrialN,trials_5.thisN,trials_5.thisIndex,trials_5.ran,key_resp.keys,key_resp.rt
left,3.58837,0,0,0,0,1,stim/VC_01.wav,5dab79a5525a7600139cd31e,2020-12-17_17h54.43.719,Spanish_step2,2020.2.3,Win32,60,,,,,,,,,,,,,,,,,,,,,,,,,,,,,,,,
right,1.371075,0,1,1,1,1,stim/VC_11.wav,5dab79a5525a7600139cd31e,2020-12-17_17h54.43.719,Spanish_step2,2020.2.3,Win32,60,,,,,,,,,,,,,,,,,,,,,,,,,,,,,,,,
,,,,,,,stim/VC_01.wav,5dab79a5525a7600139cd31e,2020-12-17_17h54.43.719,Spanish_step2,2020.2.3,Win32,60,space,3.263395,left,1.59355,0,0,0,0,1,,,,,,,,,,,,,,,,,,,,,,,
,,,,,,,stim/VC_06.wav,5dab79a5525a7600139cd31e,2020-12-17_17h54.43.719,Spanish_step2,2020.2.3,Win32,60,,,right,0.81774,0,1,1,5,1,,,,,,,,,,,,,,,,,,,,,,,
,,,,,,,stim/VC_07.wav,5dab79a5525a7600139cd31e,2020-12-17_17h54.43.719,Spanish_step2,2020.2.3,Win32,60,,,right,0.68967,0,2,2,6,1,,,,,,,,,,,,,,,,,,,,,,,
,,,,,,,stim/VC_09.wav,5dab79a5525a7600139cd31e,2020-12-17_17h54.43.719,Spanish_step2,2020.2.3,Win32,60,,,right,0.61917,0,3,3,8,1,,,,,,,,,,,,,,,,,,,,,,,
,,,,,,,stim/VC_02.wav,5dab79a5525a7600139cd31e,2020-12-17_17h54.43.719,Spanish_step2,2020.2.3,Win32,60,,,left,0.559535,0,4,4,1,1,,,,,,,,,,,,,,,,,,,,,,,
,,,,,,,stim/VC_08.wav,5dab79a5525a7600139cd31e,2020-12-17_17h54.43.719,Spanish_step2,2020.2.3,Win32,60,,,right,0.558535,0,5,5,7,1,,,,,,,,,,,,,,,,,,,,,,,
,,,,,,,stim/VC_03.wav,5dab79a5525a7600139cd31e,2020-12-17_17h54.43.719,Spanish_step2,2020.2.3,Win32,60,,,left,0.701395,0,6,6,2,1,,,,,,,,,,,,,,,,,,,,,,,
,,,,,,,stim/VC_04.wav,5dab79a5525a7600139cd31e,2020-12-17_17h54.43.719,Spanish_step2,2020.2.3,Win32,60,,,right,0.500495,0,7,7,3,1,,,,,,,,,,,,,,,,,,,,,,,
,,,,,,,stim/VC_05.wav,5dab79a5525a7600139cd31e,2020-12-17_17h54.43.719,Spanish_step2,2020.2.3,Win32,60,,,right,0.63581,0,8,8,4,1,,,,,,,,,,,,,,,,,,,,,,,
,,,,,,,stim/VC_11.wav,5dab79a5525a7600139cd31e,2020-12-17_17h54.43.719,Spanish_step2,2020.2.3,Win32,60,,,right,0.515125,0,9,9,10,1,,,,,,,,,,,,,,,,,,,,,,,
,,,,,,,stim/VC_10.wav,5dab79a5525a7600139cd31e,2020-12-17_17h54.43.719,Spanish_step2,2020.2.3,Win32,60,,,right,0.398215,0,10,10,9,1,,,,,,,,,,,,,,,,,,,,,,,
,,,,,,,stim/VC_10.wav,5dab79a5525a7600139cd31e,2020-12-17_17h54.43.719,Spanish_step2,2020.2.3,Win32,60,,,right,0.410855,1,0,11,9,1,,,,,,,,,,,,,,,,,,,,,,,
,,,,,,,stim/VC_01.wav,5dab79a5525a7600139cd31e,2020-12-17_17h54.43.719,Spanish_step2,2020.2.3,Win32,60,,,left,0.568145,1,1,12,0,1,,,,,,,,,,,,,,,,,,,,,,,
,,,,,,,stim/VC_04.wav,5dab79a5525a7600139cd31e,2020-12-17_17h54.43.719,Spanish_step2,2020.2.3,Win32,60,,,right,0.61638,1,2,13,3,1,,,,,,,,,,,,,,,,,,,,,,,
,,,,,,,stim/VC_11.wav,5dab79a5525a7600139cd31e,2020-12-17_17h54.43.719,Spanish_step2,2020.2.3,Win32,60,,,right,0.724065,1,3,14,10,1,,,,,,,,,,,,,,,,,,,,,,,
,,,,,,,stim/VC_08.wav,5dab79a5525a7600139cd31e,2020-12-17_17h54.43.719,Spanish_step2,2020.2.3,Win32,60,,,right,0.4946,1,4,15,7,1,,,,,,,,,,,,,,,,,,,,,,,
,,,,,,,stim/VC_06.wav,5dab79a5525a7600139cd31e,2020-12-17_17h54.43.719,Spanish_step2,2020.2.3,Win32,60,,,right,0.57404,1,5,16,5,1,,,,,,,,,,,,,,,,,,,,,,,
,,,,,,,stim/VC_09.wav,5dab79a5525a7600139cd31e,2020-12-17_17h54.43.719,Spanish_step2,2020.2.3,Win32,60,,,right,0.45153,1,6,17,8,1,,,,,,,,,,,,,,,,,,,,,,,
,,,,,,,stim/VC_05.wav,5dab79a5525a7600139cd31e,2020-12-17_17h54.43.719,Spanish_step2,2020.2.3,Win32,60,,,right,0.51536,1,7,18,4,1,,,,,,,,,,,,,,,,,,,,,,,
,,,,,,,stim/VC_02.wav,5dab79a5525a7600139cd31e,2020-12-17_17h54.43.719,Spanish_step2,2020.2.3,Win32,60,,,left,0.60856,1,8,19,1,1,,,,,,,,,,,,,,,,,,,,,,,
,,,,,,,stim/VC_03.wav,5dab79a5525a7600139cd31e,2020-12-17_17h54.43.719,Spanish_step2,2020.2.3,Win32,60,,,left,0.66834,1,9,20,2,1,,,,,,,,,,,,,,,,,,,,,,,
,,,,,,,stim/VC_07.wav,5dab79a5525a7600139cd31e,2020-12-17_17h54.43.719,Spanish_step2,2020.2.3,Win32,60,,,right,0.518325,1,10,21,6,1,,,,,,,,,,,,,,,,,,,,,,,
,,,,,,,stim/VC_10.wav,5dab79a5525a7600139cd31e,2020-12-17_17h54.43.719,Spanish_step2,2020.2.3,Win32,60,,,right,0.41862,2,0,22,9,1,,,,,,,,,,,,,,,,,,,,,,,
,,,,,,,stim/VC_03.wav,5dab79a5525a7600139cd31e,2020-12-17_17h54.43.719,Spanish_step2,2020.2.3,Win32,60,,,left,0.596025,2,1,23,2,1,,,,,,,,,,,,,,,,,,,,,,,
,,,,,,,stim/VC_09.wav,5dab79a5525a7600139cd31e,2020-12-17_17h54.43.719,Spanish_step2,2020.2.3,Win32,60,,,right,0.55456,2,2,24,8,1,,,,,,,,,,,,,,,,,,,,,,,
,,,,,,,stim/VC_07.wav,5dab79a5525a7600139cd31e,2020-12-17_17h54.43.719,Spanish_step2,2020.2.3,Win32,60,,,left,0.572695,2,3,25,6,1,,,,,,,,,,,,,,,,,,,,,,,
,,,,,,,stim/VC_11.wav,5dab79a5525a7600139cd31e,2020-12-17_17h54.43.719,Spanish_step2,2020.2.3,Win32,60,,,right,1.05781,2,4,26,10,1,,,,,,,,,,,,,,,,,,,,,,,
,,,,,,,stim/VC_02.wav,5dab79a5525a7600139cd31e,2020-12-17_17h54.43.719,Spanish_step2,2020.2.3,Win32,60,,,left,0.656855,2,5,27,1,1,,,,,,,,,,,,,,,,,,,,,,,
,,,,,,,stim/VC_08.wav,5dab79a5525a7600139cd31e,2020-12-17_17h54.43.719,Spanish_step2,2020.2.3,Win32,60,,,right,0.651195,2,6,28,7,1,,,,,,,,,,,,,,,,,,,,,,,
,,,,,,,stim/VC_04.wav,5dab79a5525a7600139cd31e,2020-12-17_17h54.43.719,Spanish_step2,2020.2.3,Win32,60,,,right,0.73746,2,7,29,3,1,,,,,,,,,,,,,,,,,,,,,,,
,,,,,,,stim/VC_05.wav,5dab79a5525a7600139cd31e,2020-12-17_17h54.43.719,Spanish_step2,2020.2.3,Win32,60,,,right,0.502425,2,8,30,4,1,,,,,,,,,,,,,,,,,,,,,,,
,,,,,,,stim/VC_01.wav,5dab79a5525a7600139cd31e,2020-12-17_17h54.43.719,Spanish_step2,2020.2.3,Win32,60,,,left,0.602125,2,9,31,0,1,,,,,,,,,,,,,,,,,,,,,,,
,,,,,,,stim/VC_06.wav,5dab79a5525a7600139cd31e,2020-12-17_17h54.43.719,Spanish_step2,2020.2.3,Win32,60,,,right,0.482065,2,10,32,5,1,,,,,,,,,,,,,,,,,,,,,,,
,,,,,,,stim/VC_03.wav,5dab79a5525a7600139cd31e,2020-12-17_17h54.43.719,Spanish_step2,2020.2.3,Win32,60,,,left,0.83465,,,,,,7,2.667845,0,0,0,2,1,,,,,,,,,,,,,,,,
,,,,,,,stim/VC_01.wav,5dab79a5525a7600139cd31e,2020-12-17_17h54.43.719,Spanish_step2,2020.2.3,Win32,60,,,left,0.78807,,,,,,,,0,1,1,0,1,,,,,,,,,,,,,,,,
,,,,,,,stim/VC_07.wav,5dab79a5525a7600139cd31e,2020-12-17_17h54.43.719,Spanish_step2,2020.2.3,Win32,60,,,right,0.615695,,,,,,,,0,2,2,6,1,,,,,,,,,,,,,,,,
,,,,,,,stim/VC_04.wav,5dab79a5525a7600139cd31e,2020-12-17_17h54.43.719,Spanish_step2,2020.2.3,Win32,60,,,right,0.798295,,,,,,,,0,3,3,3,1,,,,,,,,,,,,,,,,
,,,,,,,stim/VC_08.wav,5dab79a5525a7600139cd31e,2020-12-17_17h54.43.719,Spanish_step2,2020.2.3,Win32,60,,,right,0.68963,,,,,,,,0,4,4,7,1,,,,,,,,,,,,,,,,
,,,,,,,stim/VC_06.wav,5dab79a5525a7600139cd31e,2020-12-17_17h54.43.719,Spanish_step2,2020.2.3,Win32,60,,,right,0.888195,,,,,,,,0,5,5,5,1,,,,,,,,,,,,,,,,
,,,,,,,stim/VC_10.wav,5dab79a5525a7600139cd31e,2020-12-17_17h54.43.719,Spanish_step2,2020.2.3,Win32,60,,,right,0.69516,,,,,,,,0,6,6,9,1,,,,,,,,,,,,,,,,
,,,,,,,stim/VC_09.wav,5dab79a5525a7600139cd31e,2020-12-17_17h54.43.719,Spanish_step2,2020.2.3,Win32,60,,,right,0.854235,,,,,,,,0,7,7,8,1,,,,,,,,,,,,,,,,
,,,,,,,stim/VC_02.wav,5dab79a5525a7600139cd31e,2020-12-17_17h54.43.719,Spanish_step2,2020.2.3,Win32,60,,,left,0.815365,,,,,,,,0,8,8,1,1,,,,,,,,,,,,,,,,
,,,,,,,stim/VC_11.wav,5dab79a5525a7600139cd31e,2020-12-17_17h54.43.719,Spanish_step2,2020.2.3,Win32,60,,,right,0.834435,,,,,,,,0,9,9,10,1,,,,,,,,,,,,,,,,
,,,,,,,stim/VC_05.wav,5dab79a5525a7600139cd31e,2020-12-17_17h54.43.719,Spanish_step2,2020.2.3,Win32,60,,,right,0.901775,,,,,,,,0,10,10,4,1,,,,,,,,,,,,,,,,
,,,,,,,stim/VC_01.wav,5dab79a5525a7600139cd31e,2020-12-17_17h54.43.719,Spanish_step2,2020.2.3,Win32,60,,,left,0.74253,,,,,,,,1,0,11,0,1,,,,,,,,,,,,,,,,
,,,,,,,stim/VC_10.wav,5dab79a5525a7600139cd31e,2020-12-17_17h54.43.719,Spanish_step2,2020.2.3,Win32,60,,,right,0.732815,,,,,,,,1,1,12,9,1,,,,,,,,,,,,,,,,
,,,,,,,stim/VC_05.wav,5dab79a5525a7600139cd31e,2020-12-17_17h54.43.719,Spanish_step2,2020.2.3,Win32,60,,,right,1.18492,,,,,,,,1,2,13,4,1,,,,,,,,,,,,,,,,
,,,,,,,stim/VC_11.wav,5dab79a5525a7600139cd31e,2020-12-17_17h54.43.719,Spanish_step2,2020.2.3,Win32,60,,,right,1.271615,,,,,,,,1,3,14,10,1,,,,,,,,,,,,,,,,
,,,,,,,stim/VC_02.wav,5dab79a5525a7600139cd31e,2020-12-17_17h54.43.719,Spanish_step2,2020.2.3,Win32,60,,,left,0.632135,,,,,,,,1,4,15,1,1,,,,,,,,,,,,,,,,
,,,,,,,stim/VC_06.wav,5dab79a5525a7600139cd31e,2020-12-17_17h54.43.719,Spanish_step2,2020.2.3,Win32,60,,,right,0.60769,,,,,,,,1,5,16,5,1,,,,,,,,,,,,,,,,
,,,,,,,stim/VC_04.wav,5dab79a5525a7600139cd31e,2020-12-17_17h54.43.719,Spanish_step2,2020.2.3,Win32,60,,,right,0.712325,,,,,,,,1,6,17,3,1,,,,,,,,,,,,,,,,
,,,,,,,stim/VC_09.wav,5dab79a5525a7600139cd31e,2020-12-17_17h54.43.719,Spanish_step2,2020.2.3,Win32,60,,,right,0.676285,,,,,,,,1,7,18,8,1,,,,,,,,,,,,,,,,
,,,,,,,stim/VC_08.wav,5dab79a5525a7600139cd31e,2020-12-17_17h54.43.719,Spanish_step2,2020.2.3,Win32,60,,,right,0.56846,,,,,,,,1,8,19,7,1,,,,,,,,,,,,,,,,
,,,,,,,stim/VC_03.wav,5dab79a5525a7600139cd31e,2020-12-17_17h54.43.719,Spanish_step2,2020.2.3,Win32,60,,,left,1.25191,,,,,,,,1,9,20,2,1,,,,,,,,,,,,,,,,
,,,,,,,stim/VC_07.wav,5dab79a5525a7600139cd31e,2020-12-17_17h54.43.719,Spanish_step2,2020.2.3,Win32,60,,,right,1.854555,,,,,,,,1,10,21,6,1,,,,,,,,,,,,,,,,
,,,,,,,stim2/pa+30.wav,5dab79a5525a7600139cd31e,2020-12-17_17h54.43.719,Spanish_step2,2020.2.3,Win32,60,,,,,,,,,,,,,,,,,left,1.911625,0,0,0,5,1,,,,,,,,,
,,,,,,,stim2/pa-20.wav,5dab79a5525a7600139cd31e,2020-12-17_17h54.43.719,Spanish_step2,2020.2.3,Win32,60,,,,,,,,,,,,,,,,,right,0.783345,0,1,1,13,1,,,,,,,,,
,,,,,,,stim2/pa+25.wav,5dab79a5525a7600139cd31e,2020-12-17_17h54.43.719,Spanish_step2,2020.2.3,Win32,60,,,,,,,,,,,,,,,,,right,0.83881,0,2,2,4,1,,,,,,,,,
,,,,,,,stim2/pa+40.wav,5dab79a5525a7600139cd31e,2020-12-17_17h54.43.719,Spanish_step2,2020.2.3,Win32,60,,,,,,,,,,,,,,,,,right,0.754495,0,3,3,7,1,,,,,,,,,
,,,,,,,stim2/pa+35.wav,5dab79a5525a7600139cd31e,2020-12-17_17h54.43.719,Spanish_step2,2020.2.3,Win32,60,,,,,,,,,,,,,,,,,right,2.57306,0,4,4,6,1,,,,,,,,,
,,,,,,,stim2/pa+10.wav,5dab79a5525a7600139cd31e,2020-12-17_17h54.43.719,Spanish_step2,2020.2.3,Win32,60,,,,,,,,,,,,,,,,,left,0.83273,0,5,5,1,1,,,,,,,,,
,,,,,,,stim2/pa-10.wav,5dab79a5525a7600139cd31e,2020-12-17_17h54.43.719,Spanish_step2,2020.2.3,Win32,60,,,,,,,,,,,,,,,,,right,0.95314,0,6,6,11,1,,,,,,,,,
,,,,,,,stim2/pa+15.wav,5dab79a5525a7600139cd31e,2020-12-17_17h54.43.719,Spanish_step2,2020.2.3,Win32,60,,,,,,,,,,,,,,,,,right,0.8021,0,7,7,2,1,,,,,,,,,
,,,,,,,stim2/pa-05.wav,5dab79a5525a7600139cd31e,2020-12-17_17h54.43.719,Spanish_step2,2020.2.3,Win32,60,,,,,,,,,,,,,,,,,right,0.675875,0,8,8,10,1,,,,,,,,,
,,,,,,,stim2/pa-35.wav,5dab79a5525a7600139cd31e,2020-12-17_17h54.43.719,Spanish_step2,2020.2.3,Win32,60,,,,,,,,,,,,,,,,,right,1.050635,0,9,9,16,1,,,,,,,,,
,,,,,,,stim2/pa+50.wav,5dab79a5525a7600139cd31e,2020-12-17_17h54.43.719,Spanish_step2,2020.2.3,Win32,60,,,,,,,,,,,,,,,,,right,1.027175,0,10,10,9,1,,,,,,,,,
,,,,,,,stim2/pa+05.wav,5dab79a5525a7600139cd31e,2020-12-17_17h54.43.719,Spanish_step2,2020.2.3,Win32,60,,,,,,,,,,,,,,,,,left,0.603335,0,11,11,0,1,,,,,,,,,
,,,,,,,stim2/pa-15.wav,5dab79a5525a7600139cd31e,2020-12-17_17h54.43.719,Spanish_step2,2020.2.3,Win32,60,,,,,,,,,,,,,,,,,left,1.752325,0,12,12,12,1,,,,,,,,,
,,,,,,,stim2/pa+20.wav,5dab79a5525a7600139cd31e,2020-12-17_17h54.43.719,Spanish_step2,2020.2.3,Win32,60,,,,,,,,,,,,,,,,,right,0.75404,0,13,13,3,1,,,,,,,,,
,,,,,,,stim2/pa+45.wav,5dab79a5525a7600139cd31e,2020-12-17_17h54.43.719,Spanish_step2,2020.2.3,Win32,60,,,,,,,,,,,,,,,,,right,0.771395,0,14,14,8,1,,,,,,,,,
,,,,,,,stim2/pa-30.wav,5dab79a5525a7600139cd31e,2020-12-17_17h54.43.719,Spanish_step2,2020.2.3,Win32,60,,,,,,,,,,,,,,,,,right,0.619435,0,15,15,15,1,,,,,,,,,
,,,,,,,stim2/pa-25.wav,5dab79a5525a7600139cd31e,2020-12-17_17h54.43.719,Spanish_step2,2020.2.3,Win32,60,,,,,,,,,,,,,,,,,right,1.137,0,16,16,14,1,,,,,,,,,
,,,,,,,stim2/pa+40.wav,5dab79a5525a7600139cd31e,2020-12-17_17h54.43.719,Spanish_step2,2020.2.3,Win32,60,,,,,,,,,,,,,,,,,right,0.80675,1,0,17,7,1,,,,,,,,,
,,,,,,,stim2/pa-10.wav,5dab79a5525a7600139cd31e,2020-12-17_17h54.43.719,Spanish_step2,2020.2.3,Win32,60,,,,,,,,,,,,,,,,,right,0.958855,1,1,18,11,1,,,,,,,,,
,,,,,,,stim2/pa+15.wav,5dab79a5525a7600139cd31e,2020-12-17_17h54.43.719,Spanish_step2,2020.2.3,Win32,60,,,,,,,,,,,,,,,,,left,0.7877,1,2,19,2,1,,,,,,,,,
,,,,,,,stim2/pa-05.wav,5dab79a5525a7600139cd31e,2020-12-17_17h54.43.719,Spanish_step2,2020.2.3,Win32,60,,,,,,,,,,,,,,,,,left,0.96967,1,3,20,10,1,,,,,,,,,
,,,,,,,stim2/pa-35.wav,5dab79a5525a7600139cd31e,2020-12-17_17h54.43.719,Spanish_step2,2020.2.3,Win32,60,,,,,,,,,,,,,,,,,right,0.865535,1,4,21,16,1,,,,,,,,,
,,,,,,,stim2/pa-30.wav,5dab79a5525a7600139cd31e,2020-12-17_17h54.43.719,Spanish_step2,2020.2.3,Win32,60,,,,,,,,,,,,,,,,,right,0.90058,1,5,22,15,1,,,,,,,,,
,,,,,,,stim2/pa-25.wav,5dab79a5525a7600139cd31e,2020-12-17_17h54.43.719,Spanish_step2,2020.2.3,Win32,60,,,,,,,,,,,,,,,,,right,1.08801,1,6,23,14,1,,,,,,,,,
,,,,,,,stim2/pa-15.wav,5dab79a5525a7600139cd31e,2020-12-17_17h54.43.719,Spanish_step2,2020.2.3,Win32,60,,,,,,,,,,,,,,,,,right,1.10986,1,7,24,12,1,,,,,,,,,
,,,,,,,stim2/pa+35.wav,5dab79a5525a7600139cd31e,2020-12-17_17h54.43.719,Spanish_step2,2020.2.3,Win32,60,,,,,,,,,,,,,,,,,right,1.83526,1,8,25,6,1,,,,,,,,,
,,,,,,,stim2/pa+30.wav,5dab79a5525a7600139cd31e,2020-12-17_17h54.43.719,Spanish_step2,2020.2.3,Win32,60,,,,,,,,,,,,,,,,,right,0.9514,1,9,26,5,1,,,,,,,,,
,,,,,,,stim2/pa+20.wav,5dab79a5525a7600139cd31e,2020-12-17_17h54.43.719,Spanish_step2,2020.2.3,Win32,60,,,,,,,,,,,,,,,,,right,0.816745,1,10,27,3,1,,,,,,,,,
,,,,,,,stim2/pa-20.wav,5dab79a5525a7600139cd31e,2020-12-17_17h54.43.719,Spanish_step2,2020.2.3,Win32,60,,,,,,,,,,,,,,,,,left,1.48571,1,11,28,13,1,,,,,,,,,
,,,,,,,stim2/pa+25.wav,5dab79a5525a7600139cd31e,2020-12-17_17h54.43.719,Spanish_step2,2020.2.3,Win32,60,,,,,,,,,,,,,,,,,left,0.761825,1,12,29,4,1,,,,,,,,,
,,,,,,,stim2/pa+50.wav,5dab79a5525a7600139cd31e,2020-12-17_17h54.43.719,Spanish_step2,2020.2.3,Win32,60,,,,,,,,,,,,,,,,,left,0.851875,1,13,30,9,1,,,,,,,,,
,,,,,,,stim2/pa+45.wav,5dab79a5525a7600139cd31e,2020-12-17_17h54.43.719,Spanish_step2,2020.2.3,Win32,60,,,,,,,,,,,,,,,,,left,0.92623,1,14,31,8,1,,,,,,,,,
,,,,,,,stim2/pa+05.wav,5dab79a5525a7600139cd31e,2020-12-17_17h54.43.719,Spanish_step2,2020.2.3,Win32,60,,,,,,,,,,,,,,,,,left,1.178085,1,15,32,0,1,,,,,,,,,
,,,,,,,stim2/pa+10.wav,5dab79a5525a7600139cd31e,2020-12-17_17h54.43.719,Spanish_step2,2020.2.3,Win32,60,,,,,,,,,,,,,,,,,right,1.236825,1,16,33,1,1,,,,,,,,,
,,,,,,,stim2/pa-10.wav,5dab79a5525a7600139cd31e,2020-12-17_17h54.43.719,Spanish_step2,2020.2.3,Win32,60,,,,,,,,,,,,,,,,,right,1.06771,2,0,34,11,1,,,,,,,,,
,,,,,,,stim2/pa+30.wav,5dab79a5525a7600139cd31e,2020-12-17_17h54.43.719,Spanish_step2,2020.2.3,Win32,60,,,,,,,,,,,,,,,,,right,0.91417,2,1,35,5,1,,,,,,,,,
,,,,,,,stim2/pa-35.wav,5dab79a5525a7600139cd31e,2020-12-17_17h54.43.719,Spanish_step2,2020.2.3,Win32,60,,,,,,,,,,,,,,,,,right,0.98481,2,2,36,16,1,,,,,,,,,
,,,,,,,stim2/pa+05.wav,5dab79a5525a7600139cd31e,2020-12-17_17h54.43.719,Spanish_step2,2020.2.3,Win32,60,,,,,,,,,,,,,,,,,right,1.13886,2,3,37,0,1,,,,,,,,,
,,,,,,,stim2/pa-05.wav,5dab79a5525a7600139cd31e,2020-12-17_17h54.43.719,Spanish_step2,2020.2.3,Win32,60,,,,,,,,,,,,,,,,,right,0.899895,2,4,38,10,1,,,,,,,,,
,,,,,,,stim2/pa-30.wav,5dab79a5525a7600139cd31e,2020-12-17_17h54.43.719,Spanish_step2,2020.2.3,Win32,60,,,,,,,,,,,,,,,,,right,0.776565,2,5,39,15,1,,,,,,,,,
,,,,,,,stim2/pa-20.wav,5dab79a5525a7600139cd31e,2020-12-17_17h54.43.719,Spanish_step2,2020.2.3,Win32,60,,,,,,,,,,,,,,,,,right,0.909655,2,6,40,13,1,,,,,,,,,
,,,,,,,stim2/pa+15.wav,5dab79a5525a7600139cd31e,2020-12-17_17h54.43.719,Spanish_step2,2020.2.3,Win32,60,,,,,,,,,,,,,,,,,right,1.604455,2,7,41,2,1,,,,,,,,,
,,,,,,,stim2/pa+45.wav,5dab79a5525a7600139cd31e,2020-12-17_17h54.43.719,Spanish_step2,2020.2.3,Win32,60,,,,,,,,,,,,,,,,,right,1.64191,2,8,42,8,1,,,,,,,,,
,,,,,,,stim2/pa+50.wav,5dab79a5525a7600139cd31e,2020-12-17_17h54.43.719,Spanish_step2,2020.2.3,Win32,60,,,,,,,,,,,,,,,,,right,1.87978,2,9,43,9,1,,,,,,,,,
,,,,,,,stim2/pa+35.wav,5dab79a5525a7600139cd31e,2020-12-17_17h54.43.719,Spanish_step2,2020.2.3,Win32,60,,,,,,,,,,,,,,,,,left,0.879655,2,10,44,6,1,,,,,,,,,
,,,,,,,stim2/pa+40.wav,5dab79a5525a7600139cd31e,2020-12-17_17h54.43.719,Spanish_step2,2020.2.3,Win32,60,,,,,,,,,,,,,,,,,right,1.49837,2,11,45,7,1,,,,,,,,,
,,,,,,,stim2/pa-25.wav,5dab79a5525a7600139cd31e,2020-12-17_17h54.43.719,Spanish_step2,2020.2.3,Win32,60,,,,,,,,,,,,,,,,,right,0.83465,2,12,46,14,1,,,,,,,,,
,,,,,,,stim2/pa+10.wav,5dab79a5525a7600139cd31e,2020-12-17_17h54.43.719,Spanish_step2,2020.2.3,Win32,60,,,,,,,,,,,,,,,,,right,0.65051,2,13,47,1,1,,,,,,,,,
,,,,,,,stim2/pa+25.wav,5dab79a5525a7600139cd31e,2020-12-17_17h54.43.719,Spanish_step2,2020.2.3,Win32,60,,,,,,,,,,,,,,,,,right,0.719265,2,14,48,4,1,,,,,,,,,
,,,,,,,stim2/pa-15.wav,5dab79a5525a7600139cd31e,2020-12-17_17h54.43.719,Spanish_step2,2020.2.3,Win32,60,,,,,,,,,,,,,,,,,right,0.7081,2,15,49,12,1,,,,,,,,,
,,,,,,,stim2/pa+20.wav,5dab79a5525a7600139cd31e,2020-12-17_17h54.43.719,Spanish_step2,2020.2.3,Win32,60,,,,,,,,,,,,,,,,,right,0.638325,2,16,50,3,1,,,,,,,,,
,,,,,,,stim2/pa+40.wav,5dab79a5525a7600139cd31e,2020-12-17_17h54.43.719,Spanish_step2,2020.2.3,Win32,60,,,,,,,,,,,,,,,,,right,1.47085,,,,,,z,2.20568,0,0,0,7,1,,
,,,,,,,stim2/pa-25.wav,5dab79a5525a7600139cd31e,2020-12-17_17h54.43.719,Spanish_step2,2020.2.3,Win32,60,,,,,,,,,,,,,,,,,right,0.53853,,,,,,,,0,1,1,14,1,,
,,,,,,,stim2/pa-35.wav,5dab79a5525a7600139cd31e,2020-12-17_17h54.43.719,Spanish_step2,2020.2.3,Win32,60,,,,,,,,,,,,,,,,,right,0.522305,,,,,,,,0,2,2,16,1,,
,,,,,,,stim2/pa+45.wav,5dab79a5525a7600139cd31e,2020-12-17_17h54.43.719,Spanish_step2,2020.2.3,Win32,60,,,,,,,,,,,,,,,,,right,0.45642,,,,,,,,0,3,3,8,1,,
,,,,,,,stim2/pa+30.wav,5dab79a5525a7600139cd31e,2020-12-17_17h54.43.719,Spanish_step2,2020.2.3,Win32,60,,,,,,,,,,,,,,,,,right,0.42127,,,,,,,,0,4,4,5,1,,
,,,,,,,stim2/pa-15.wav,5dab79a5525a7600139cd31e,2020-12-17_17h54.43.719,Spanish_step2,2020.2.3,Win32,60,,,,,,,,,,,,,,,,,right,0.433495,,,,,,,,0,5,5,12,1,,
,,,,,,,stim2/pa-20.wav,5dab79a5525a7600139cd31e,2020-12-17_17h54.43.719,Spanish_step2,2020.2.3,Win32,60,,,,,,,,,,,,,,,,,right,0.65937,,,,,,,,0,6,6,13,1,,
,,,,,,,stim2/pa+50.wav,5dab79a5525a7600139cd31e,2020-12-17_17h54.43.719,Spanish_step2,2020.2.3,Win32,60,,,,,,,,,,,,,,,,,right,0.676485,,,,,,,,0,7,7,9,1,,
,,,,,,,stim2/pa-30.wav,5dab79a5525a7600139cd31e,2020-12-17_17h54.43.719,Spanish_step2,2020.2.3,Win32,60,,,,,,,,,,,,,,,,,right,0.58551,,,,,,,,0,8,8,15,1,,
,,,,,,,stim2/pa+35.wav,5dab79a5525a7600139cd31e,2020-12-17_17h54.43.719,Spanish_step2,2020.2.3,Win32,60,,,,,,,,,,,,,,,,,right,0.601015,,,,,,,,0,9,9,6,1,,
,,,,,,,stim2/pa-10.wav,5dab79a5525a7600139cd31e,2020-12-17_17h54.43.719,Spanish_step2,2020.2.3,Win32,60,,,,,,,,,,,,,,,,,right,0.69152,,,,,,,,0,10,10,11,1,,
,,,,,,,stim2/pa+15.wav,5dab79a5525a7600139cd31e,2020-12-17_17h54.43.719,Spanish_step2,2020.2.3,Win32,60,,,,,,,,,,,,,,,,,right,0.85264,,,,,,,,0,11,11,2,1,,
,,,,,,,stim2/pa+10.wav,5dab79a5525a7600139cd31e,2020-12-17_17h54.43.719,Spanish_step2,2020.2.3,Win32,60,,,,,,,,,,,,,,,,,left,0.57096,,,,,,,,0,12,12,1,1,,
,,,,,,,stim2/pa+25.wav,5dab79a5525a7600139cd31e,2020-12-17_17h54.43.719,Spanish_step2,2020.2.3,Win32,60,,,,,,,,,,,,,,,,,left,0.656305,,,,,,,,0,13,13,4,1,,
,,,,,,,stim2/pa+05.wav,5dab79a5525a7600139cd31e,2020-12-17_17h54.43.719,Spanish_step2,2020.2.3,Win32,60,,,,,,,,,,,,,,,,,right,0.702405,,,,,,,,0,14,14,0,1,,
,,,,,,,stim2/pa+20.wav,5dab79a5525a7600139cd31e,2020-12-17_17h54.43.719,Spanish_step2,2020.2.3,Win32,60,,,,,,,,,,,,,,,,,right,0.691805,,,,,,,,0,15,15,3,1,,
,,,,,,,stim2/pa-05.wav,5dab79a5525a7600139cd31e,2020-12-17_17h54.43.719,Spanish_step2,2020.2.3,Win32,60,,,,,,,,,,,,,,,,,right,1.044825,,,,,,,,0,16,16,10,1,,
,,,,,,,stim2/pa+10.wav,5dab79a5525a7600139cd31e,2020-12-17_17h54.43.719,Spanish_step2,2020.2.3,Win32,60,,,,,,,,,,,,,,,,,left,1.20451,,,,,,,,1,0,17,1,1,,
,,,,,,,stim2/pa+15.wav,5dab79a5525a7600139cd31e,2020-12-17_17h54.43.719,Spanish_step2,2020.2.3,Win32,60,,,,,,,,,,,,,,,,,left,0.90402,,,,,,,,1,1,18,2,1,,
,,,,,,,stim2/pa-15.wav,5dab79a5525a7600139cd31e,2020-12-17_17h54.43.719,Spanish_step2,2020.2.3,Win32,60,,,,,,,,,,,,,,,,,right,0.559315,,,,,,,,1,2,19,12,1,,
,,,,,,,stim2/pa+40.wav,5dab79a5525a7600139cd31e,2020-12-17_17h54.43.719,Spanish_step2,2020.2.3,Win32,60,,,,,,,,,,,,,,,,,right,0.533155,,,,,,,,1,3,20,7,1,,
,,,,,,,stim2/pa-05.wav,5dab79a5525a7600139cd31e,2020-12-17_17h54.43.719,Spanish_step2,2020.2.3,Win32,60,,,,,,,,,,,,,,,,,right,0.585625,,,,,,,,1,4,21,10,1,,
,,,,,,,stim2/pa+20.wav,5dab79a5525a7600139cd31e,2020-12-17_17h54.43.719,Spanish_step2,2020.2.3,Win32,60,,,,,,,,,,,,,,,,,left,0.45693,,,,,,,,1,5,22,3,1,,
,,,,,,,stim2/pa-10.wav,5dab79a5525a7600139cd31e,2020-12-17_17h54.43.719,Spanish_step2,2020.2.3,Win32,60,,,,,,,,,,,,,,,,,left,1.65497,,,,,,,,1,6,23,11,1,,
,,,,,,,stim2/pa+25.wav,5dab79a5525a7600139cd31e,2020-12-17_17h54.43.719,Spanish_step2,2020.2.3,Win32,60,,,,,,,,,,,,,,,,,right,0.849785,,,,,,,,1,7,24,4,1,,
,,,,,,,stim2/pa+50.wav,5dab79a5525a7600139cd31e,2020-12-17_17h54.43.719,Spanish_step2,2020.2.3,Win32,60,,,,,,,,,,,,,,,,,right,1.00733,,,,,,,,1,8,25,9,1,,
,,,,,,,stim2/pa+45.wav,5dab79a5525a7600139cd31e,2020-12-17_17h54.43.719,Spanish_step2,2020.2.3,Win32,60,,,,,,,,,,,,,,,,,left,1.13738,,,,,,,,1,9,26,8,1,,
,,,,,,,stim2/pa+35.wav,5dab79a5525a7600139cd31e,2020-12-17_17h54.43.719,Spanish_step2,2020.2.3,Win32,60,,,,,,,,,,,,,,,,,right,0.58346,,,,,,,,1,10,27,6,1,,
,,,,,,,stim2/pa-20.wav,5dab79a5525a7600139cd31e,2020-12-17_17h54.43.719,Spanish_step2,2020.2.3,Win32,60,,,,,,,,,,,,,,,,,right,0.699055,,,,,,,,1,11,28,13,1,,
,,,,,,,stim2/pa-30.wav,5dab79a5525a7600139cd31e,2020-12-17_17h54.43.719,Spanish_step2,2020.2.3,Win32,60,,,,,,,,,,,,,,,,,right,0.56219,,,,,,,,1,12,29,15,1,,
,,,,,,,stim2/pa-35.wav,5dab79a5525a7600139cd31e,2020-12-17_17h54.43.719,Spanish_step2,2020.2.3,Win32,60,,,,,,,,,,,,,,,,,left,1.144695,,,,,,,,1,13,30,16,1,,
,,,,,,,stim2/pa+30.wav,5dab79a5525a7600139cd31e,2020-12-17_17h54.43.719,Spanish_step2,2020.2.3,Win32,60,,,,,,,,,,,,,,,,,right,0.59625,,,,,,,,1,14,31,5,1,,
,,,,,,,stim2/pa-25.wav,5dab79a5525a7600139cd31e,2020-12-17_17h54.43.719,Spanish_step2,2020.2.3,Win32,60,,,,,,,,,,,,,,,,,right,0.626615,,,,,,,,1,15,32,14,1,,
,,,,,,,stim2/pa+05.wav,5dab79a5525a7600139cd31e,2020-12-17_17h54.43.719,Spanish_step2,2020.2.3,Win32,60,,,,,,,,,,,,,,,,,right,0.635905,,,,,,,,1,16,33,0,1,,
,,,,,,,,5dab79a5525a7600139cd31e,2020-12-17_17h54.43.719,Spanish_step2,2020.2.3,Win32,60,,,,,,,,,,,,,,,,,,,,,,,,,,,,,,,space,5.962275
