resp.keys,resp.rt,trials.thisRepN,trials.thisTrialN,trials.thisN,trials.thisIndex,trials.ran,stimuli,participant,date,expName,psychopyVersion,OS,frameRate,gotResponse.keys,gotResponse.rt,resp_2.keys,resp_2.rt,trials_2.thisRepN,trials_2.thisTrialN,trials_2.thisN,trials_2.thisIndex,trials_2.ran,key_resp_3.keys,key_resp_3.rt,trials_4.thisRepN,trials_4.thisTrialN,trials_4.thisN,trials_4.thisIndex,trials_4.ran,resp_3.keys,resp_3.rt,trials_3.thisRepN,trials_3.thisTrialN,trials_3.thisN,trials_3.thisIndex,trials_3.ran,key_resp_2.keys,key_resp_2.rt,trials_5.thisRepN,trials_5.thisTrialN,trials_5.thisN,trials_5.thisIndex,trials_5.ran,key_resp.keys,key_resp.rt
right,1.246905,0,0,0,1,1,stim/VC_11.wav,5f10dbe567c6dd412e0738cf,2021-01-20_16h07.32.840,Spanish_step2,2020.2.3,Win32,60,,,,,,,,,,,,,,,,,,,,,,,,,,,,,,,,
left,0.66903,0,1,1,0,1,stim/VC_01.wav,5f10dbe567c6dd412e0738cf,2021-01-20_16h07.32.840,Spanish_step2,2020.2.3,Win32,60,,,,,,,,,,,,,,,,,,,,,,,,,,,,,,,,
,,,,,,,stim/VC_06.wav,5f10dbe567c6dd412e0738cf,2021-01-20_16h07.32.840,Spanish_step2,2020.2.3,Win32,60,space,1.460725,right,1.069435,0,0,0,5,1,,,,,,,,,,,,,,,,,,,,,,,
,,,,,,,stim/VC_08.wav,5f10dbe567c6dd412e0738cf,2021-01-20_16h07.32.840,Spanish_step2,2020.2.3,Win32,60,,,right,0.47147,0,1,1,7,1,,,,,,,,,,,,,,,,,,,,,,,
,,,,,,,stim/VC_11.wav,5f10dbe567c6dd412e0738cf,2021-01-20_16h07.32.840,Spanish_step2,2020.2.3,Win32,60,,,right,0.59443,0,2,2,10,1,,,,,,,,,,,,,,,,,,,,,,,
,,,,,,,stim/VC_09.wav,5f10dbe567c6dd412e0738cf,2021-01-20_16h07.32.840,Spanish_step2,2020.2.3,Win32,60,,,right,0.47178,0,3,3,8,1,,,,,,,,,,,,,,,,,,,,,,,
,,,,,,,stim/VC_03.wav,5f10dbe567c6dd412e0738cf,2021-01-20_16h07.32.840,Spanish_step2,2020.2.3,Win32,60,,,left,0.472775,0,4,4,2,1,,,,,,,,,,,,,,,,,,,,,,,
,,,,,,,stim/VC_05.wav,5f10dbe567c6dd412e0738cf,2021-01-20_16h07.32.840,Spanish_step2,2020.2.3,Win32,60,,,left,0.50113,0,5,5,4,1,,,,,,,,,,,,,,,,,,,,,,,
,,,,,,,stim/VC_07.wav,5f10dbe567c6dd412e0738cf,2021-01-20_16h07.32.840,Spanish_step2,2020.2.3,Win32,60,,,right,0.482825,0,6,6,6,1,,,,,,,,,,,,,,,,,,,,,,,
,,,,,,,stim/VC_10.wav,5f10dbe567c6dd412e0738cf,2021-01-20_16h07.32.840,Spanish_step2,2020.2.3,Win32,60,,,right,0.470195,0,7,7,9,1,,,,,,,,,,,,,,,,,,,,,,,
,,,,,,,stim/VC_02.wav,5f10dbe567c6dd412e0738cf,2021-01-20_16h07.32.840,Spanish_step2,2020.2.3,Win32,60,,,left,0.51764,0,8,8,1,1,,,,,,,,,,,,,,,,,,,,,,,
,,,,,,,stim/VC_04.wav,5f10dbe567c6dd412e0738cf,2021-01-20_16h07.32.840,Spanish_step2,2020.2.3,Win32,60,,,left,0.507155,0,9,9,3,1,,,,,,,,,,,,,,,,,,,,,,,
,,,,,,,stim/VC_01.wav,5f10dbe567c6dd412e0738cf,2021-01-20_16h07.32.840,Spanish_step2,2020.2.3,Win32,60,,,left,0.495745,0,10,10,0,1,,,,,,,,,,,,,,,,,,,,,,,
,,,,,,,stim/VC_01.wav,5f10dbe567c6dd412e0738cf,2021-01-20_16h07.32.840,Spanish_step2,2020.2.3,Win32,60,,,left,0.453025,1,0,11,0,1,,,,,,,,,,,,,,,,,,,,,,,
,,,,,,,stim/VC_04.wav,5f10dbe567c6dd412e0738cf,2021-01-20_16h07.32.840,Spanish_step2,2020.2.3,Win32,60,,,left,0.5221,1,1,12,3,1,,,,,,,,,,,,,,,,,,,,,,,
,,,,,,,stim/VC_03.wav,5f10dbe567c6dd412e0738cf,2021-01-20_16h07.32.840,Spanish_step2,2020.2.3,Win32,60,,,left,0.516655,1,2,13,2,1,,,,,,,,,,,,,,,,,,,,,,,
,,,,,,,stim/VC_07.wav,5f10dbe567c6dd412e0738cf,2021-01-20_16h07.32.840,Spanish_step2,2020.2.3,Win32,60,,,right,0.485225,1,3,14,6,1,,,,,,,,,,,,,,,,,,,,,,,
,,,,,,,stim/VC_10.wav,5f10dbe567c6dd412e0738cf,2021-01-20_16h07.32.840,Spanish_step2,2020.2.3,Win32,60,,,right,0.384915,1,4,15,9,1,,,,,,,,,,,,,,,,,,,,,,,
,,,,,,,stim/VC_08.wav,5f10dbe567c6dd412e0738cf,2021-01-20_16h07.32.840,Spanish_step2,2020.2.3,Win32,60,,,right,0.41875,1,5,16,7,1,,,,,,,,,,,,,,,,,,,,,,,
,,,,,,,stim/VC_02.wav,5f10dbe567c6dd412e0738cf,2021-01-20_16h07.32.840,Spanish_step2,2020.2.3,Win32,60,,,left,0.500515,1,6,17,1,1,,,,,,,,,,,,,,,,,,,,,,,
,,,,,,,stim/VC_09.wav,5f10dbe567c6dd412e0738cf,2021-01-20_16h07.32.840,Spanish_step2,2020.2.3,Win32,60,,,right,0.560585,1,7,18,8,1,,,,,,,,,,,,,,,,,,,,,,,
,,,,,,,stim/VC_05.wav,5f10dbe567c6dd412e0738cf,2021-01-20_16h07.32.840,Spanish_step2,2020.2.3,Win32,60,,,right,1.05076,1,8,19,4,1,,,,,,,,,,,,,,,,,,,,,,,
,,,,,,,stim/VC_11.wav,5f10dbe567c6dd412e0738cf,2021-01-20_16h07.32.840,Spanish_step2,2020.2.3,Win32,60,,,right,0.62912,1,9,20,10,1,,,,,,,,,,,,,,,,,,,,,,,
,,,,,,,stim/VC_06.wav,5f10dbe567c6dd412e0738cf,2021-01-20_16h07.32.840,Spanish_step2,2020.2.3,Win32,60,,,right,0.795685,1,10,21,5,1,,,,,,,,,,,,,,,,,,,,,,,
,,,,,,,stim/VC_07.wav,5f10dbe567c6dd412e0738cf,2021-01-20_16h07.32.840,Spanish_step2,2020.2.3,Win32,60,,,right,0.63676,2,0,22,6,1,,,,,,,,,,,,,,,,,,,,,,,
,,,,,,,stim/VC_01.wav,5f10dbe567c6dd412e0738cf,2021-01-20_16h07.32.840,Spanish_step2,2020.2.3,Win32,60,,,right,0.834145,2,1,23,0,1,,,,,,,,,,,,,,,,,,,,,,,
,,,,,,,stim/VC_02.wav,5f10dbe567c6dd412e0738cf,2021-01-20_16h07.32.840,Spanish_step2,2020.2.3,Win32,60,,,left,0.50797,2,2,24,1,1,,,,,,,,,,,,,,,,,,,,,,,
,,,,,,,stim/VC_10.wav,5f10dbe567c6dd412e0738cf,2021-01-20_16h07.32.840,Spanish_step2,2020.2.3,Win32,60,,,right,0.53468,2,3,25,9,1,,,,,,,,,,,,,,,,,,,,,,,
,,,,,,,stim/VC_11.wav,5f10dbe567c6dd412e0738cf,2021-01-20_16h07.32.840,Spanish_step2,2020.2.3,Win32,60,,,right,0.48444,2,4,26,10,1,,,,,,,,,,,,,,,,,,,,,,,
,,,,,,,stim/VC_06.wav,5f10dbe567c6dd412e0738cf,2021-01-20_16h07.32.840,Spanish_step2,2020.2.3,Win32,60,,,right,0.700615,2,5,27,5,1,,,,,,,,,,,,,,,,,,,,,,,
,,,,,,,stim/VC_09.wav,5f10dbe567c6dd412e0738cf,2021-01-20_16h07.32.840,Spanish_step2,2020.2.3,Win32,60,,,right,0.62287,2,6,28,8,1,,,,,,,,,,,,,,,,,,,,,,,
,,,,,,,stim/VC_03.wav,5f10dbe567c6dd412e0738cf,2021-01-20_16h07.32.840,Spanish_step2,2020.2.3,Win32,60,,,left,0.44618,2,7,29,2,1,,,,,,,,,,,,,,,,,,,,,,,
,,,,,,,stim/VC_05.wav,5f10dbe567c6dd412e0738cf,2021-01-20_16h07.32.840,Spanish_step2,2020.2.3,Win32,60,,,left,0.73904,2,8,30,4,1,,,,,,,,,,,,,,,,,,,,,,,
,,,,,,,stim/VC_04.wav,5f10dbe567c6dd412e0738cf,2021-01-20_16h07.32.840,Spanish_step2,2020.2.3,Win32,60,,,left,0.469995,2,9,31,3,1,,,,,,,,,,,,,,,,,,,,,,,
,,,,,,,stim/VC_08.wav,5f10dbe567c6dd412e0738cf,2021-01-20_16h07.32.840,Spanish_step2,2020.2.3,Win32,60,,,right,0.557885,2,10,32,7,1,,,,,,,,,,,,,,,,,,,,,,,
,,,,,,,stim/VC_08.wav,5f10dbe567c6dd412e0738cf,2021-01-20_16h07.32.840,Spanish_step2,2020.2.3,Win32,60,,,right,0.50272,,,,,,7,2.284595,0,0,0,7,1,,,,,,,,,,,,,,,,
,,,,,,,stim/VC_02.wav,5f10dbe567c6dd412e0738cf,2021-01-20_16h07.32.840,Spanish_step2,2020.2.3,Win32,60,,,left,0.41083,,,,,,,,0,1,1,1,1,,,,,,,,,,,,,,,,
,,,,,,,stim/VC_04.wav,5f10dbe567c6dd412e0738cf,2021-01-20_16h07.32.840,Spanish_step2,2020.2.3,Win32,60,,,left,0.500805,,,,,,,,0,2,2,3,1,,,,,,,,,,,,,,,,
,,,,,,,stim/VC_01.wav,5f10dbe567c6dd412e0738cf,2021-01-20_16h07.32.840,Spanish_step2,2020.2.3,Win32,60,,,left,0.449065,,,,,,,,0,3,3,0,1,,,,,,,,,,,,,,,,
,,,,,,,stim/VC_10.wav,5f10dbe567c6dd412e0738cf,2021-01-20_16h07.32.840,Spanish_step2,2020.2.3,Win32,60,,,right,0.4795,,,,,,,,0,4,4,9,1,,,,,,,,,,,,,,,,
,,,,,,,stim/VC_07.wav,5f10dbe567c6dd412e0738cf,2021-01-20_16h07.32.840,Spanish_step2,2020.2.3,Win32,60,,,right,0.462145,,,,,,,,0,5,5,6,1,,,,,,,,,,,,,,,,
,,,,,,,stim/VC_09.wav,5f10dbe567c6dd412e0738cf,2021-01-20_16h07.32.840,Spanish_step2,2020.2.3,Win32,60,,,right,0.45807,,,,,,,,0,6,6,8,1,,,,,,,,,,,,,,,,
,,,,,,,stim/VC_11.wav,5f10dbe567c6dd412e0738cf,2021-01-20_16h07.32.840,Spanish_step2,2020.2.3,Win32,60,,,right,0.47948,,,,,,,,0,7,7,10,1,,,,,,,,,,,,,,,,
,,,,,,,stim/VC_03.wav,5f10dbe567c6dd412e0738cf,2021-01-20_16h07.32.840,Spanish_step2,2020.2.3,Win32,60,,,left,0.376525,,,,,,,,0,8,8,2,1,,,,,,,,,,,,,,,,
,,,,,,,stim/VC_06.wav,5f10dbe567c6dd412e0738cf,2021-01-20_16h07.32.840,Spanish_step2,2020.2.3,Win32,60,,,left,0.667155,,,,,,,,0,9,9,5,1,,,,,,,,,,,,,,,,
,,,,,,,stim/VC_05.wav,5f10dbe567c6dd412e0738cf,2021-01-20_16h07.32.840,Spanish_step2,2020.2.3,Win32,60,,,left,0.55245,,,,,,,,0,10,10,4,1,,,,,,,,,,,,,,,,
,,,,,,,stim/VC_07.wav,5f10dbe567c6dd412e0738cf,2021-01-20_16h07.32.840,Spanish_step2,2020.2.3,Win32,60,,,right,0.62613,,,,,,,,1,0,11,6,1,,,,,,,,,,,,,,,,
,,,,,,,stim/VC_10.wav,5f10dbe567c6dd412e0738cf,2021-01-20_16h07.32.840,Spanish_step2,2020.2.3,Win32,60,,,right,0.4515,,,,,,,,1,1,12,9,1,,,,,,,,,,,,,,,,
,,,,,,,stim/VC_01.wav,5f10dbe567c6dd412e0738cf,2021-01-20_16h07.32.840,Spanish_step2,2020.2.3,Win32,60,,,left,0.589875,,,,,,,,1,2,13,0,1,,,,,,,,,,,,,,,,
,,,,,,,stim/VC_09.wav,5f10dbe567c6dd412e0738cf,2021-01-20_16h07.32.840,Spanish_step2,2020.2.3,Win32,60,,,left,0.50192,,,,,,,,1,3,14,8,1,,,,,,,,,,,,,,,,
,,,,,,,stim/VC_05.wav,5f10dbe567c6dd412e0738cf,2021-01-20_16h07.32.840,Spanish_step2,2020.2.3,Win32,60,,,left,1.143915,,,,,,,,1,4,15,4,1,,,,,,,,,,,,,,,,
,,,,,,,stim/VC_08.wav,5f10dbe567c6dd412e0738cf,2021-01-20_16h07.32.840,Spanish_step2,2020.2.3,Win32,60,,,right,0.483905,,,,,,,,1,5,16,7,1,,,,,,,,,,,,,,,,
,,,,,,,stim/VC_04.wav,5f10dbe567c6dd412e0738cf,2021-01-20_16h07.32.840,Spanish_step2,2020.2.3,Win32,60,,,left,0.607315,,,,,,,,1,6,17,3,1,,,,,,,,,,,,,,,,
,,,,,,,stim/VC_11.wav,5f10dbe567c6dd412e0738cf,2021-01-20_16h07.32.840,Spanish_step2,2020.2.3,Win32,60,,,right,0.83452,,,,,,,,1,7,18,10,1,,,,,,,,,,,,,,,,
,,,,,,,stim/VC_06.wav,5f10dbe567c6dd412e0738cf,2021-01-20_16h07.32.840,Spanish_step2,2020.2.3,Win32,60,,,right,0.734265,,,,,,,,1,8,19,5,1,,,,,,,,,,,,,,,,
,,,,,,,stim/VC_02.wav,5f10dbe567c6dd412e0738cf,2021-01-20_16h07.32.840,Spanish_step2,2020.2.3,Win32,60,,,left,0.46146,,,,,,,,1,9,20,1,1,,,,,,,,,,,,,,,,
,,,,,,,stim/VC_03.wav,5f10dbe567c6dd412e0738cf,2021-01-20_16h07.32.840,Spanish_step2,2020.2.3,Win32,60,,,left,0.57071,,,,,,,,1,10,21,2,1,,,,,,,,,,,,,,,,
,,,,,,,stim2/pa+10.wav,5f10dbe567c6dd412e0738cf,2021-01-20_16h07.32.840,Spanish_step2,2020.2.3,Win32,60,,,,,,,,,,,,,,,,,left,1.1227,0,0,0,1,1,,,,,,,,,
,,,,,,,stim2/pa-35.wav,5f10dbe567c6dd412e0738cf,2021-01-20_16h07.32.840,Spanish_step2,2020.2.3,Win32,60,,,,,,,,,,,,,,,,,right,0.72462,0,1,1,16,1,,,,,,,,,
,,,,,,,stim2/pa-10.wav,5f10dbe567c6dd412e0738cf,2021-01-20_16h07.32.840,Spanish_step2,2020.2.3,Win32,60,,,,,,,,,,,,,,,,,right,0.53368,0,2,2,11,1,,,,,,,,,
,,,,,,,stim2/pa+50.wav,5f10dbe567c6dd412e0738cf,2021-01-20_16h07.32.840,Spanish_step2,2020.2.3,Win32,60,,,,,,,,,,,,,,,,,left,0.51149,0,3,3,9,1,,,,,,,,,
,,,,,,,stim2/pa+35.wav,5f10dbe567c6dd412e0738cf,2021-01-20_16h07.32.840,Spanish_step2,2020.2.3,Win32,60,,,,,,,,,,,,,,,,,left,0.700885,0,4,4,6,1,,,,,,,,,
,,,,,,,stim2/pa-05.wav,5f10dbe567c6dd412e0738cf,2021-01-20_16h07.32.840,Spanish_step2,2020.2.3,Win32,60,,,,,,,,,,,,,,,,,right,0.4536,0,5,5,10,1,,,,,,,,,
,,,,,,,stim2/pa-30.wav,5f10dbe567c6dd412e0738cf,2021-01-20_16h07.32.840,Spanish_step2,2020.2.3,Win32,60,,,,,,,,,,,,,,,,,right,0.80477,0,6,6,15,1,,,,,,,,,
,,,,,,,stim2/pa+20.wav,5f10dbe567c6dd412e0738cf,2021-01-20_16h07.32.840,Spanish_step2,2020.2.3,Win32,60,,,,,,,,,,,,,,,,,left,0.442865,0,7,7,3,1,,,,,,,,,
,,,,,,,stim2/pa+30.wav,5f10dbe567c6dd412e0738cf,2021-01-20_16h07.32.840,Spanish_step2,2020.2.3,Win32,60,,,,,,,,,,,,,,,,,left,0.768195,0,8,8,5,1,,,,,,,,,
,,,,,,,stim2/pa+25.wav,5f10dbe567c6dd412e0738cf,2021-01-20_16h07.32.840,Spanish_step2,2020.2.3,Win32,60,,,,,,,,,,,,,,,,,left,0.43407,0,9,9,4,1,,,,,,,,,
,,,,,,,stim2/pa+15.wav,5f10dbe567c6dd412e0738cf,2021-01-20_16h07.32.840,Spanish_step2,2020.2.3,Win32,60,,,,,,,,,,,,,,,,,left,0.58848,0,10,10,2,1,,,,,,,,,
,,,,,,,stim2/pa+05.wav,5f10dbe567c6dd412e0738cf,2021-01-20_16h07.32.840,Spanish_step2,2020.2.3,Win32,60,,,,,,,,,,,,,,,,,left,0.493055,0,11,11,0,1,,,,,,,,,
,,,,,,,stim2/pa+40.wav,5f10dbe567c6dd412e0738cf,2021-01-20_16h07.32.840,Spanish_step2,2020.2.3,Win32,60,,,,,,,,,,,,,,,,,left,0.43529,0,12,12,7,1,,,,,,,,,
,,,,,,,stim2/pa+45.wav,5f10dbe567c6dd412e0738cf,2021-01-20_16h07.32.840,Spanish_step2,2020.2.3,Win32,60,,,,,,,,,,,,,,,,,left,0.44951,0,13,13,8,1,,,,,,,,,
,,,,,,,stim2/pa-25.wav,5f10dbe567c6dd412e0738cf,2021-01-20_16h07.32.840,Spanish_step2,2020.2.3,Win32,60,,,,,,,,,,,,,,,,,right,0.6075,0,14,14,14,1,,,,,,,,,
,,,,,,,stim2/pa-15.wav,5f10dbe567c6dd412e0738cf,2021-01-20_16h07.32.840,Spanish_step2,2020.2.3,Win32,60,,,,,,,,,,,,,,,,,right,0.891275,0,15,15,12,1,,,,,,,,,
,,,,,,,stim2/pa-20.wav,5f10dbe567c6dd412e0738cf,2021-01-20_16h07.32.840,Spanish_step2,2020.2.3,Win32,60,,,,,,,,,,,,,,,,,right,0.556635,0,16,16,13,1,,,,,,,,,
,,,,,,,stim2/pa+30.wav,5f10dbe567c6dd412e0738cf,2021-01-20_16h07.32.840,Spanish_step2,2020.2.3,Win32,60,,,,,,,,,,,,,,,,,left,0.41767,1,0,17,5,1,,,,,,,,,
,,,,,,,stim2/pa+50.wav,5f10dbe567c6dd412e0738cf,2021-01-20_16h07.32.840,Spanish_step2,2020.2.3,Win32,60,,,,,,,,,,,,,,,,,left,0.48547,1,1,18,9,1,,,,,,,,,
,,,,,,,stim2/pa+05.wav,5f10dbe567c6dd412e0738cf,2021-01-20_16h07.32.840,Spanish_step2,2020.2.3,Win32,60,,,,,,,,,,,,,,,,,left,0.633815,1,2,19,0,1,,,,,,,,,
,,,,,,,stim2/pa-20.wav,5f10dbe567c6dd412e0738cf,2021-01-20_16h07.32.840,Spanish_step2,2020.2.3,Win32,60,,,,,,,,,,,,,,,,,right,0.60173,1,3,20,13,1,,,,,,,,,
,,,,,,,stim2/pa+10.wav,5f10dbe567c6dd412e0738cf,2021-01-20_16h07.32.840,Spanish_step2,2020.2.3,Win32,60,,,,,,,,,,,,,,,,,left,0.684735,1,4,21,1,1,,,,,,,,,
,,,,,,,stim2/pa-10.wav,5f10dbe567c6dd412e0738cf,2021-01-20_16h07.32.840,Spanish_step2,2020.2.3,Win32,60,,,,,,,,,,,,,,,,,right,0.590145,1,5,22,11,1,,,,,,,,,
,,,,,,,stim2/pa+20.wav,5f10dbe567c6dd412e0738cf,2021-01-20_16h07.32.840,Spanish_step2,2020.2.3,Win32,60,,,,,,,,,,,,,,,,,left,0.756785,1,6,23,3,1,,,,,,,,,
,,,,,,,stim2/pa-25.wav,5f10dbe567c6dd412e0738cf,2021-01-20_16h07.32.840,Spanish_step2,2020.2.3,Win32,60,,,,,,,,,,,,,,,,,right,0.71547,1,7,24,14,1,,,,,,,,,
,,,,,,,stim2/pa+15.wav,5f10dbe567c6dd412e0738cf,2021-01-20_16h07.32.840,Spanish_step2,2020.2.3,Win32,60,,,,,,,,,,,,,,,,,left,0.626015,1,8,25,2,1,,,,,,,,,
,,,,,,,stim2/pa+35.wav,5f10dbe567c6dd412e0738cf,2021-01-20_16h07.32.840,Spanish_step2,2020.2.3,Win32,60,,,,,,,,,,,,,,,,,left,0.66825,1,9,26,6,1,,,,,,,,,
,,,,,,,stim2/pa-05.wav,5f10dbe567c6dd412e0738cf,2021-01-20_16h07.32.840,Spanish_step2,2020.2.3,Win32,60,,,,,,,,,,,,,,,,,right,0.685975,1,10,27,10,1,,,,,,,,,
,,,,,,,stim2/pa-30.wav,5f10dbe567c6dd412e0738cf,2021-01-20_16h07.32.840,Spanish_step2,2020.2.3,Win32,60,,,,,,,,,,,,,,,,,right,0.5868,1,11,28,15,1,,,,,,,,,
,,,,,,,stim2/pa+45.wav,5f10dbe567c6dd412e0738cf,2021-01-20_16h07.32.840,Spanish_step2,2020.2.3,Win32,60,,,,,,,,,,,,,,,,,left,0.40882,1,12,29,8,1,,,,,,,,,
,,,,,,,stim2/pa-35.wav,5f10dbe567c6dd412e0738cf,2021-01-20_16h07.32.840,Spanish_step2,2020.2.3,Win32,60,,,,,,,,,,,,,,,,,right,0.551985,1,13,30,16,1,,,,,,,,,
,,,,,,,stim2/pa-15.wav,5f10dbe567c6dd412e0738cf,2021-01-20_16h07.32.840,Spanish_step2,2020.2.3,Win32,60,,,,,,,,,,,,,,,,,right,1.31468,1,14,31,12,1,,,,,,,,,
,,,,,,,stim2/pa+40.wav,5f10dbe567c6dd412e0738cf,2021-01-20_16h07.32.840,Spanish_step2,2020.2.3,Win32,60,,,,,,,,,,,,,,,,,left,0.642335,1,15,32,7,1,,,,,,,,,
,,,,,,,stim2/pa+25.wav,5f10dbe567c6dd412e0738cf,2021-01-20_16h07.32.840,Spanish_step2,2020.2.3,Win32,60,,,,,,,,,,,,,,,,,left,0.96019,1,16,33,4,1,,,,,,,,,
,,,,,,,stim2/pa-30.wav,5f10dbe567c6dd412e0738cf,2021-01-20_16h07.32.840,Spanish_step2,2020.2.3,Win32,60,,,,,,,,,,,,,,,,,right,0.556345,2,0,34,15,1,,,,,,,,,
,,,,,,,stim2/pa-15.wav,5f10dbe567c6dd412e0738cf,2021-01-20_16h07.32.840,Spanish_step2,2020.2.3,Win32,60,,,,,,,,,,,,,,,,,right,1.18423,2,1,35,12,1,,,,,,,,,
,,,,,,,stim2/pa+50.wav,5f10dbe567c6dd412e0738cf,2021-01-20_16h07.32.840,Spanish_step2,2020.2.3,Win32,60,,,,,,,,,,,,,,,,,left,0.670445,2,2,36,9,1,,,,,,,,,
,,,,,,,stim2/pa-05.wav,5f10dbe567c6dd412e0738cf,2021-01-20_16h07.32.840,Spanish_step2,2020.2.3,Win32,60,,,,,,,,,,,,,,,,,right,0.65102,2,3,37,10,1,,,,,,,,,
,,,,,,,stim2/pa-25.wav,5f10dbe567c6dd412e0738cf,2021-01-20_16h07.32.840,Spanish_step2,2020.2.3,Win32,60,,,,,,,,,,,,,,,,,left,0.45225,2,4,38,14,1,,,,,,,,,
,,,,,,,stim2/pa+40.wav,5f10dbe567c6dd412e0738cf,2021-01-20_16h07.32.840,Spanish_step2,2020.2.3,Win32,60,,,,,,,,,,,,,,,,,left,0.584305,2,5,39,7,1,,,,,,,,,
,,,,,,,stim2/pa+45.wav,5f10dbe567c6dd412e0738cf,2021-01-20_16h07.32.840,Spanish_step2,2020.2.3,Win32,60,,,,,,,,,,,,,,,,,left,0.855395,2,6,40,8,1,,,,,,,,,
,,,,,,,stim2/pa-20.wav,5f10dbe567c6dd412e0738cf,2021-01-20_16h07.32.840,Spanish_step2,2020.2.3,Win32,60,,,,,,,,,,,,,,,,,right,0.450695,2,7,41,13,1,,,,,,,,,
,,,,,,,stim2/pa+25.wav,5f10dbe567c6dd412e0738cf,2021-01-20_16h07.32.840,Spanish_step2,2020.2.3,Win32,60,,,,,,,,,,,,,,,,,left,0.55073,2,8,42,4,1,,,,,,,,,
,,,,,,,stim2/pa+15.wav,5f10dbe567c6dd412e0738cf,2021-01-20_16h07.32.840,Spanish_step2,2020.2.3,Win32,60,,,,,,,,,,,,,,,,,left,0.653925,2,9,43,2,1,,,,,,,,,
,,,,,,,stim2/pa-35.wav,5f10dbe567c6dd412e0738cf,2021-01-20_16h07.32.840,Spanish_step2,2020.2.3,Win32,60,,,,,,,,,,,,,,,,,right,0.49431,2,10,44,16,1,,,,,,,,,
,,,,,,,stim2/pa+20.wav,5f10dbe567c6dd412e0738cf,2021-01-20_16h07.32.840,Spanish_step2,2020.2.3,Win32,60,,,,,,,,,,,,,,,,,left,0.652115,2,11,45,3,1,,,,,,,,,
,,,,,,,stim2/pa+10.wav,5f10dbe567c6dd412e0738cf,2021-01-20_16h07.32.840,Spanish_step2,2020.2.3,Win32,60,,,,,,,,,,,,,,,,,left,0.655375,2,12,46,1,1,,,,,,,,,
,,,,,,,stim2/pa+05.wav,5f10dbe567c6dd412e0738cf,2021-01-20_16h07.32.840,Spanish_step2,2020.2.3,Win32,60,,,,,,,,,,,,,,,,,left,0.56715,2,13,47,0,1,,,,,,,,,
,,,,,,,stim2/pa+30.wav,5f10dbe567c6dd412e0738cf,2021-01-20_16h07.32.840,Spanish_step2,2020.2.3,Win32,60,,,,,,,,,,,,,,,,,left,0.693125,2,14,48,5,1,,,,,,,,,
,,,,,,,stim2/pa-10.wav,5f10dbe567c6dd412e0738cf,2021-01-20_16h07.32.840,Spanish_step2,2020.2.3,Win32,60,,,,,,,,,,,,,,,,,right,0.75989,2,15,49,11,1,,,,,,,,,
,,,,,,,stim2/pa+35.wav,5f10dbe567c6dd412e0738cf,2021-01-20_16h07.32.840,Spanish_step2,2020.2.3,Win32,60,,,,,,,,,,,,,,,,,left,0.48392,2,16,50,6,1,,,,,,,,,
,,,,,,,stim2/pa+45.wav,5f10dbe567c6dd412e0738cf,2021-01-20_16h07.32.840,Spanish_step2,2020.2.3,Win32,60,,,,,,,,,,,,,,,,,left,0.73491,,,,,,z,1.768665,0,0,0,8,1,,
,,,,,,,stim2/pa+05.wav,5f10dbe567c6dd412e0738cf,2021-01-20_16h07.32.840,Spanish_step2,2020.2.3,Win32,60,,,,,,,,,,,,,,,,,left,0.64321,,,,,,,,0,1,1,0,1,,
,,,,,,,stim2/pa+40.wav,5f10dbe567c6dd412e0738cf,2021-01-20_16h07.32.840,Spanish_step2,2020.2.3,Win32,60,,,,,,,,,,,,,,,,,left,0.61921,,,,,,,,0,2,2,7,1,,
,,,,,,,stim2/pa-20.wav,5f10dbe567c6dd412e0738cf,2021-01-20_16h07.32.840,Spanish_step2,2020.2.3,Win32,60,,,,,,,,,,,,,,,,,right,0.56995,,,,,,,,0,3,3,13,1,,
,,,,,,,stim2/pa+35.wav,5f10dbe567c6dd412e0738cf,2021-01-20_16h07.32.840,Spanish_step2,2020.2.3,Win32,60,,,,,,,,,,,,,,,,,left,0.461945,,,,,,,,0,4,4,6,1,,
,,,,,,,stim2/pa+15.wav,5f10dbe567c6dd412e0738cf,2021-01-20_16h07.32.840,Spanish_step2,2020.2.3,Win32,60,,,,,,,,,,,,,,,,,left,0.517935,,,,,,,,0,5,5,2,1,,
,,,,,,,stim2/pa-10.wav,5f10dbe567c6dd412e0738cf,2021-01-20_16h07.32.840,Spanish_step2,2020.2.3,Win32,60,,,,,,,,,,,,,,,,,right,0.636335,,,,,,,,0,6,6,11,1,,
,,,,,,,stim2/pa-05.wav,5f10dbe567c6dd412e0738cf,2021-01-20_16h07.32.840,Spanish_step2,2020.2.3,Win32,60,,,,,,,,,,,,,,,,,left,0.35868,,,,,,,,0,7,7,10,1,,
,,,,,,,stim2/pa-15.wav,5f10dbe567c6dd412e0738cf,2021-01-20_16h07.32.840,Spanish_step2,2020.2.3,Win32,60,,,,,,,,,,,,,,,,,right,0.471865,,,,,,,,0,8,8,12,1,,
,,,,,,,stim2/pa+10.wav,5f10dbe567c6dd412e0738cf,2021-01-20_16h07.32.840,Spanish_step2,2020.2.3,Win32,60,,,,,,,,,,,,,,,,,left,0.393275,,,,,,,,0,9,9,1,1,,
,,,,,,,stim2/pa-25.wav,5f10dbe567c6dd412e0738cf,2021-01-20_16h07.32.840,Spanish_step2,2020.2.3,Win32,60,,,,,,,,,,,,,,,,,right,0.484405,,,,,,,,0,10,10,14,1,,
,,,,,,,stim2/pa+50.wav,5f10dbe567c6dd412e0738cf,2021-01-20_16h07.32.840,Spanish_step2,2020.2.3,Win32,60,,,,,,,,,,,,,,,,,left,0.40085,,,,,,,,0,11,11,9,1,,
,,,,,,,stim2/pa-35.wav,5f10dbe567c6dd412e0738cf,2021-01-20_16h07.32.840,Spanish_step2,2020.2.3,Win32,60,,,,,,,,,,,,,,,,,right,0.450565,,,,,,,,0,12,12,16,1,,
,,,,,,,stim2/pa+20.wav,5f10dbe567c6dd412e0738cf,2021-01-20_16h07.32.840,Spanish_step2,2020.2.3,Win32,60,,,,,,,,,,,,,,,,,left,1.08442,,,,,,,,0,13,13,3,1,,
,,,,,,,stim2/pa+25.wav,5f10dbe567c6dd412e0738cf,2021-01-20_16h07.32.840,Spanish_step2,2020.2.3,Win32,60,,,,,,,,,,,,,,,,,left,1.05098,,,,,,,,0,14,14,4,1,,
,,,,,,,stim2/pa-30.wav,5f10dbe567c6dd412e0738cf,2021-01-20_16h07.32.840,Spanish_step2,2020.2.3,Win32,60,,,,,,,,,,,,,,,,,right,0.4283,,,,,,,,0,15,15,15,1,,
,,,,,,,stim2/pa+30.wav,5f10dbe567c6dd412e0738cf,2021-01-20_16h07.32.840,Spanish_step2,2020.2.3,Win32,60,,,,,,,,,,,,,,,,,left,0.733965,,,,,,,,0,16,16,5,1,,
,,,,,,,stim2/pa+40.wav,5f10dbe567c6dd412e0738cf,2021-01-20_16h07.32.840,Spanish_step2,2020.2.3,Win32,60,,,,,,,,,,,,,,,,,left,0.6506,,,,,,,,1,0,17,7,1,,
,,,,,,,stim2/pa+10.wav,5f10dbe567c6dd412e0738cf,2021-01-20_16h07.32.840,Spanish_step2,2020.2.3,Win32,60,,,,,,,,,,,,,,,,,left,0.91796,,,,,,,,1,1,18,1,1,,
,,,,,,,stim2/pa+45.wav,5f10dbe567c6dd412e0738cf,2021-01-20_16h07.32.840,Spanish_step2,2020.2.3,Win32,60,,,,,,,,,,,,,,,,,right,0.42011,,,,,,,,1,2,19,8,1,,
,,,,,,,stim2/pa+50.wav,5f10dbe567c6dd412e0738cf,2021-01-20_16h07.32.840,Spanish_step2,2020.2.3,Win32,60,,,,,,,,,,,,,,,,,left,0.41027,,,,,,,,1,3,20,9,1,,
,,,,,,,stim2/pa-25.wav,5f10dbe567c6dd412e0738cf,2021-01-20_16h07.32.840,Spanish_step2,2020.2.3,Win32,60,,,,,,,,,,,,,,,,,right,0.64217,,,,,,,,1,4,21,14,1,,
,,,,,,,stim2/pa+05.wav,5f10dbe567c6dd412e0738cf,2021-01-20_16h07.32.840,Spanish_step2,2020.2.3,Win32,60,,,,,,,,,,,,,,,,,left,0.607925,,,,,,,,1,5,22,0,1,,
,,,,,,,stim2/pa+15.wav,5f10dbe567c6dd412e0738cf,2021-01-20_16h07.32.840,Spanish_step2,2020.2.3,Win32,60,,,,,,,,,,,,,,,,,left,0.743575,,,,,,,,1,6,23,2,1,,
,,,,,,,stim2/pa-15.wav,5f10dbe567c6dd412e0738cf,2021-01-20_16h07.32.840,Spanish_step2,2020.2.3,Win32,60,,,,,,,,,,,,,,,,,right,0.459695,,,,,,,,1,7,24,12,1,,
,,,,,,,stim2/pa-35.wav,5f10dbe567c6dd412e0738cf,2021-01-20_16h07.32.840,Spanish_step2,2020.2.3,Win32,60,,,,,,,,,,,,,,,,,right,0.51795,,,,,,,,1,8,25,16,1,,
,,,,,,,stim2/pa-05.wav,5f10dbe567c6dd412e0738cf,2021-01-20_16h07.32.840,Spanish_step2,2020.2.3,Win32,60,,,,,,,,,,,,,,,,,left,0.474755,,,,,,,,1,9,26,10,1,,
,,,,,,,stim2/pa+25.wav,5f10dbe567c6dd412e0738cf,2021-01-20_16h07.32.840,Spanish_step2,2020.2.3,Win32,60,,,,,,,,,,,,,,,,,left,0.851905,,,,,,,,1,10,27,4,1,,
,,,,,,,stim2/pa-10.wav,5f10dbe567c6dd412e0738cf,2021-01-20_16h07.32.840,Spanish_step2,2020.2.3,Win32,60,,,,,,,,,,,,,,,,,right,0.74064,,,,,,,,1,11,28,11,1,,
,,,,,,,stim2/pa+20.wav,5f10dbe567c6dd412e0738cf,2021-01-20_16h07.32.840,Spanish_step2,2020.2.3,Win32,60,,,,,,,,,,,,,,,,,left,0.468025,,,,,,,,1,12,29,3,1,,
,,,,,,,stim2/pa+30.wav,5f10dbe567c6dd412e0738cf,2021-01-20_16h07.32.840,Spanish_step2,2020.2.3,Win32,60,,,,,,,,,,,,,,,,,left,0.984105,,,,,,,,1,13,30,5,1,,
,,,,,,,stim2/pa-30.wav,5f10dbe567c6dd412e0738cf,2021-01-20_16h07.32.840,Spanish_step2,2020.2.3,Win32,60,,,,,,,,,,,,,,,,,right,0.400865,,,,,,,,1,14,31,15,1,,
,,,,,,,stim2/pa-20.wav,5f10dbe567c6dd412e0738cf,2021-01-20_16h07.32.840,Spanish_step2,2020.2.3,Win32,60,,,,,,,,,,,,,,,,,left,0.827655,,,,,,,,1,15,32,13,1,,
,,,,,,,stim2/pa+35.wav,5f10dbe567c6dd412e0738cf,2021-01-20_16h07.32.840,Spanish_step2,2020.2.3,Win32,60,,,,,,,,,,,,,,,,,left,0.527845,,,,,,,,1,16,33,6,1,,
,,,,,,,,5f10dbe567c6dd412e0738cf,2021-01-20_16h07.32.840,Spanish_step2,2020.2.3,Win32,60,,,,,,,,,,,,,,,,,,,,,,,,,,,,,,,space,2.6306
