resp.keys,resp.rt,trials.thisRepN,trials.thisTrialN,trials.thisN,trials.thisIndex,trials.ran,stimuli,participant,date,expName,psychopyVersion,OS,frameRate,gotResponse.keys,gotResponse.rt,resp_2.keys,resp_2.rt,trials_2.thisRepN,trials_2.thisTrialN,trials_2.thisN,trials_2.thisIndex,trials_2.ran,key_resp_3.keys,key_resp_3.rt,trials_4.thisRepN,trials_4.thisTrialN,trials_4.thisN,trials_4.thisIndex,trials_4.ran,resp_3.keys,resp_3.rt,trials_3.thisRepN,trials_3.thisTrialN,trials_3.thisN,trials_3.thisIndex,trials_3.ran,key_resp_2.keys,key_resp_2.rt,trials_5.thisRepN,trials_5.thisTrialN,trials_5.thisN,trials_5.thisIndex,trials_5.ran,key_resp.keys,key_resp.rt
right,3.26815,0,0,0,1,1,stim/VC_11.wav,5f3344917a7a0b159bd0c375,2021-01-20_15h02.21.320,Spanish_step2,2020.2.3,Win32,60,,,,,,,,,,,,,,,,,,,,,,,,,,,,,,,,
left,0.747735,0,1,1,0,1,stim/VC_01.wav,5f3344917a7a0b159bd0c375,2021-01-20_15h02.21.320,Spanish_step2,2020.2.3,Win32,60,,,,,,,,,,,,,,,,,,,,,,,,,,,,,,,,
,,,,,,,stim/VC_08.wav,5f3344917a7a0b159bd0c375,2021-01-20_15h02.21.320,Spanish_step2,2020.2.3,Win32,60,space,1.531715,right,1.21411,0,0,0,7,1,,,,,,,,,,,,,,,,,,,,,,,
,,,,,,,stim/VC_07.wav,5f3344917a7a0b159bd0c375,2021-01-20_15h02.21.320,Spanish_step2,2020.2.3,Win32,60,,,right,0.45903,0,1,1,6,1,,,,,,,,,,,,,,,,,,,,,,,
,,,,,,,stim/VC_03.wav,5f3344917a7a0b159bd0c375,2021-01-20_15h02.21.320,Spanish_step2,2020.2.3,Win32,60,,,left,0.46204,0,2,2,2,1,,,,,,,,,,,,,,,,,,,,,,,
,,,,,,,stim/VC_01.wav,5f3344917a7a0b159bd0c375,2021-01-20_15h02.21.320,Spanish_step2,2020.2.3,Win32,60,,,left,0.43285,0,3,3,0,1,,,,,,,,,,,,,,,,,,,,,,,
,,,,,,,stim/VC_09.wav,5f3344917a7a0b159bd0c375,2021-01-20_15h02.21.320,Spanish_step2,2020.2.3,Win32,60,,,right,0.58763,0,4,4,8,1,,,,,,,,,,,,,,,,,,,,,,,
,,,,,,,stim/VC_04.wav,5f3344917a7a0b159bd0c375,2021-01-20_15h02.21.320,Spanish_step2,2020.2.3,Win32,60,,,left,0.43429,0,5,5,3,1,,,,,,,,,,,,,,,,,,,,,,,
,,,,,,,stim/VC_11.wav,5f3344917a7a0b159bd0c375,2021-01-20_15h02.21.320,Spanish_step2,2020.2.3,Win32,60,,,right,0.560625,0,6,6,10,1,,,,,,,,,,,,,,,,,,,,,,,
,,,,,,,stim/VC_10.wav,5f3344917a7a0b159bd0c375,2021-01-20_15h02.21.320,Spanish_step2,2020.2.3,Win32,60,,,right,0.539505,0,7,7,9,1,,,,,,,,,,,,,,,,,,,,,,,
,,,,,,,stim/VC_05.wav,5f3344917a7a0b159bd0c375,2021-01-20_15h02.21.320,Spanish_step2,2020.2.3,Win32,60,,,left,0.463215,0,8,8,4,1,,,,,,,,,,,,,,,,,,,,,,,
,,,,,,,stim/VC_02.wav,5f3344917a7a0b159bd0c375,2021-01-20_15h02.21.320,Spanish_step2,2020.2.3,Win32,60,,,left,0.40118,0,9,9,1,1,,,,,,,,,,,,,,,,,,,,,,,
,,,,,,,stim/VC_06.wav,5f3344917a7a0b159bd0c375,2021-01-20_15h02.21.320,Spanish_step2,2020.2.3,Win32,60,,,right,0.591495,0,10,10,5,1,,,,,,,,,,,,,,,,,,,,,,,
,,,,,,,stim/VC_04.wav,5f3344917a7a0b159bd0c375,2021-01-20_15h02.21.320,Spanish_step2,2020.2.3,Win32,60,,,right,0.981015,1,0,11,3,1,,,,,,,,,,,,,,,,,,,,,,,
,,,,,,,stim/VC_09.wav,5f3344917a7a0b159bd0c375,2021-01-20_15h02.21.320,Spanish_step2,2020.2.3,Win32,60,,,right,0.622345,1,1,12,8,1,,,,,,,,,,,,,,,,,,,,,,,
,,,,,,,stim/VC_07.wav,5f3344917a7a0b159bd0c375,2021-01-20_15h02.21.320,Spanish_step2,2020.2.3,Win32,60,,,right,0.44776,1,2,13,6,1,,,,,,,,,,,,,,,,,,,,,,,
,,,,,,,stim/VC_10.wav,5f3344917a7a0b159bd0c375,2021-01-20_15h02.21.320,Spanish_step2,2020.2.3,Win32,60,,,right,0.463015,1,3,14,9,1,,,,,,,,,,,,,,,,,,,,,,,
,,,,,,,stim/VC_06.wav,5f3344917a7a0b159bd0c375,2021-01-20_15h02.21.320,Spanish_step2,2020.2.3,Win32,60,,,right,0.485275,1,4,15,5,1,,,,,,,,,,,,,,,,,,,,,,,
,,,,,,,stim/VC_02.wav,5f3344917a7a0b159bd0c375,2021-01-20_15h02.21.320,Spanish_step2,2020.2.3,Win32,60,,,left,0.539305,1,5,16,1,1,,,,,,,,,,,,,,,,,,,,,,,
,,,,,,,stim/VC_01.wav,5f3344917a7a0b159bd0c375,2021-01-20_15h02.21.320,Spanish_step2,2020.2.3,Win32,60,,,left,0.43324,1,6,17,0,1,,,,,,,,,,,,,,,,,,,,,,,
,,,,,,,stim/VC_08.wav,5f3344917a7a0b159bd0c375,2021-01-20_15h02.21.320,Spanish_step2,2020.2.3,Win32,60,,,right,0.544105,1,7,18,7,1,,,,,,,,,,,,,,,,,,,,,,,
,,,,,,,stim/VC_05.wav,5f3344917a7a0b159bd0c375,2021-01-20_15h02.21.320,Spanish_step2,2020.2.3,Win32,60,,,right,0.5357,1,8,19,4,1,,,,,,,,,,,,,,,,,,,,,,,
,,,,,,,stim/VC_03.wav,5f3344917a7a0b159bd0c375,2021-01-20_15h02.21.320,Spanish_step2,2020.2.3,Win32,60,,,left,0.511985,1,9,20,2,1,,,,,,,,,,,,,,,,,,,,,,,
,,,,,,,stim/VC_11.wav,5f3344917a7a0b159bd0c375,2021-01-20_15h02.21.320,Spanish_step2,2020.2.3,Win32,60,,,right,0.638605,1,10,21,10,1,,,,,,,,,,,,,,,,,,,,,,,
,,,,,,,stim/VC_05.wav,5f3344917a7a0b159bd0c375,2021-01-20_15h02.21.320,Spanish_step2,2020.2.3,Win32,60,,,left,0.640205,2,0,22,4,1,,,,,,,,,,,,,,,,,,,,,,,
,,,,,,,stim/VC_04.wav,5f3344917a7a0b159bd0c375,2021-01-20_15h02.21.320,Spanish_step2,2020.2.3,Win32,60,,,left,0.56928,2,1,23,3,1,,,,,,,,,,,,,,,,,,,,,,,
,,,,,,,stim/VC_10.wav,5f3344917a7a0b159bd0c375,2021-01-20_15h02.21.320,Spanish_step2,2020.2.3,Win32,60,,,right,0.655485,2,2,24,9,1,,,,,,,,,,,,,,,,,,,,,,,
,,,,,,,stim/VC_09.wav,5f3344917a7a0b159bd0c375,2021-01-20_15h02.21.320,Spanish_step2,2020.2.3,Win32,60,,,right,0.525675,2,3,25,8,1,,,,,,,,,,,,,,,,,,,,,,,
,,,,,,,stim/VC_07.wav,5f3344917a7a0b159bd0c375,2021-01-20_15h02.21.320,Spanish_step2,2020.2.3,Win32,60,,,right,0.45713,2,4,26,6,1,,,,,,,,,,,,,,,,,,,,,,,
,,,,,,,stim/VC_03.wav,5f3344917a7a0b159bd0c375,2021-01-20_15h02.21.320,Spanish_step2,2020.2.3,Win32,60,,,left,0.896405,2,5,27,2,1,,,,,,,,,,,,,,,,,,,,,,,
,,,,,,,stim/VC_02.wav,5f3344917a7a0b159bd0c375,2021-01-20_15h02.21.320,Spanish_step2,2020.2.3,Win32,60,,,left,0.52171,2,6,28,1,1,,,,,,,,,,,,,,,,,,,,,,,
,,,,,,,stim/VC_11.wav,5f3344917a7a0b159bd0c375,2021-01-20_15h02.21.320,Spanish_step2,2020.2.3,Win32,60,,,right,0.48834,2,7,29,10,1,,,,,,,,,,,,,,,,,,,,,,,
,,,,,,,stim/VC_01.wav,5f3344917a7a0b159bd0c375,2021-01-20_15h02.21.320,Spanish_step2,2020.2.3,Win32,60,,,left,0.683485,2,8,30,0,1,,,,,,,,,,,,,,,,,,,,,,,
,,,,,,,stim/VC_06.wav,5f3344917a7a0b159bd0c375,2021-01-20_15h02.21.320,Spanish_step2,2020.2.3,Win32,60,,,right,0.582055,2,9,31,5,1,,,,,,,,,,,,,,,,,,,,,,,
,,,,,,,stim/VC_08.wav,5f3344917a7a0b159bd0c375,2021-01-20_15h02.21.320,Spanish_step2,2020.2.3,Win32,60,,,right,0.548175,2,10,32,7,1,,,,,,,,,,,,,,,,,,,,,,,
,,,,,,,stim/VC_08.wav,5f3344917a7a0b159bd0c375,2021-01-20_15h02.21.320,Spanish_step2,2020.2.3,Win32,60,,,right,0.755685,,,,,,7,2.615485,0,0,0,7,1,,,,,,,,,,,,,,,,
,,,,,,,stim/VC_07.wav,5f3344917a7a0b159bd0c375,2021-01-20_15h02.21.320,Spanish_step2,2020.2.3,Win32,60,,,right,0.60651,,,,,,,,0,1,1,6,1,,,,,,,,,,,,,,,,
,,,,,,,stim/VC_05.wav,5f3344917a7a0b159bd0c375,2021-01-20_15h02.21.320,Spanish_step2,2020.2.3,Win32,60,,,right,0.540165,,,,,,,,0,2,2,4,1,,,,,,,,,,,,,,,,
,,,,,,,stim/VC_10.wav,5f3344917a7a0b159bd0c375,2021-01-20_15h02.21.320,Spanish_step2,2020.2.3,Win32,60,,,right,0.65566,,,,,,,,0,3,3,9,1,,,,,,,,,,,,,,,,
,,,,,,,stim/VC_11.wav,5f3344917a7a0b159bd0c375,2021-01-20_15h02.21.320,Spanish_step2,2020.2.3,Win32,60,,,right,0.76223,,,,,,,,0,4,4,10,1,,,,,,,,,,,,,,,,
,,,,,,,stim/VC_01.wav,5f3344917a7a0b159bd0c375,2021-01-20_15h02.21.320,Spanish_step2,2020.2.3,Win32,60,,,left,0.47207,,,,,,,,0,5,5,0,1,,,,,,,,,,,,,,,,
,,,,,,,stim/VC_09.wav,5f3344917a7a0b159bd0c375,2021-01-20_15h02.21.320,Spanish_step2,2020.2.3,Win32,60,,,right,0.53494,,,,,,,,0,6,6,8,1,,,,,,,,,,,,,,,,
,,,,,,,stim/VC_04.wav,5f3344917a7a0b159bd0c375,2021-01-20_15h02.21.320,Spanish_step2,2020.2.3,Win32,60,,,left,0.55033,,,,,,,,0,7,7,3,1,,,,,,,,,,,,,,,,
,,,,,,,stim/VC_02.wav,5f3344917a7a0b159bd0c375,2021-01-20_15h02.21.320,Spanish_step2,2020.2.3,Win32,60,,,left,0.513485,,,,,,,,0,8,8,1,1,,,,,,,,,,,,,,,,
,,,,,,,stim/VC_06.wav,5f3344917a7a0b159bd0c375,2021-01-20_15h02.21.320,Spanish_step2,2020.2.3,Win32,60,,,right,0.527395,,,,,,,,0,9,9,5,1,,,,,,,,,,,,,,,,
,,,,,,,stim/VC_03.wav,5f3344917a7a0b159bd0c375,2021-01-20_15h02.21.320,Spanish_step2,2020.2.3,Win32,60,,,left,0.52896,,,,,,,,0,10,10,2,1,,,,,,,,,,,,,,,,
,,,,,,,stim/VC_02.wav,5f3344917a7a0b159bd0c375,2021-01-20_15h02.21.320,Spanish_step2,2020.2.3,Win32,60,,,left,0.550395,,,,,,,,1,0,11,1,1,,,,,,,,,,,,,,,,
,,,,,,,stim/VC_01.wav,5f3344917a7a0b159bd0c375,2021-01-20_15h02.21.320,Spanish_step2,2020.2.3,Win32,60,,,left,0.44535,,,,,,,,1,1,12,0,1,,,,,,,,,,,,,,,,
,,,,,,,stim/VC_05.wav,5f3344917a7a0b159bd0c375,2021-01-20_15h02.21.320,Spanish_step2,2020.2.3,Win32,60,,,right,0.49187,,,,,,,,1,2,13,4,1,,,,,,,,,,,,,,,,
,,,,,,,stim/VC_03.wav,5f3344917a7a0b159bd0c375,2021-01-20_15h02.21.320,Spanish_step2,2020.2.3,Win32,60,,,left,0.61176,,,,,,,,1,3,14,2,1,,,,,,,,,,,,,,,,
,,,,,,,stim/VC_04.wav,5f3344917a7a0b159bd0c375,2021-01-20_15h02.21.320,Spanish_step2,2020.2.3,Win32,60,,,left,0.499835,,,,,,,,1,4,15,3,1,,,,,,,,,,,,,,,,
,,,,,,,stim/VC_08.wav,5f3344917a7a0b159bd0c375,2021-01-20_15h02.21.320,Spanish_step2,2020.2.3,Win32,60,,,right,0.48417,,,,,,,,1,5,16,7,1,,,,,,,,,,,,,,,,
,,,,,,,stim/VC_07.wav,5f3344917a7a0b159bd0c375,2021-01-20_15h02.21.320,Spanish_step2,2020.2.3,Win32,60,,,right,0.511435,,,,,,,,1,6,17,6,1,,,,,,,,,,,,,,,,
,,,,,,,stim/VC_10.wav,5f3344917a7a0b159bd0c375,2021-01-20_15h02.21.320,Spanish_step2,2020.2.3,Win32,60,,,right,0.679935,,,,,,,,1,7,18,9,1,,,,,,,,,,,,,,,,
,,,,,,,stim/VC_11.wav,5f3344917a7a0b159bd0c375,2021-01-20_15h02.21.320,Spanish_step2,2020.2.3,Win32,60,,,right,0.48987,,,,,,,,1,8,19,10,1,,,,,,,,,,,,,,,,
,,,,,,,stim/VC_09.wav,5f3344917a7a0b159bd0c375,2021-01-20_15h02.21.320,Spanish_step2,2020.2.3,Win32,60,,,right,0.578885,,,,,,,,1,9,20,8,1,,,,,,,,,,,,,,,,
,,,,,,,stim/VC_06.wav,5f3344917a7a0b159bd0c375,2021-01-20_15h02.21.320,Spanish_step2,2020.2.3,Win32,60,,,right,0.470555,,,,,,,,1,10,21,5,1,,,,,,,,,,,,,,,,
,,,,,,,stim2/pa+10.wav,5f3344917a7a0b159bd0c375,2021-01-20_15h02.21.320,Spanish_step2,2020.2.3,Win32,60,,,,,,,,,,,,,,,,,left,1.3635,0,0,0,1,1,,,,,,,,,
,,,,,,,stim2/pa+25.wav,5f3344917a7a0b159bd0c375,2021-01-20_15h02.21.320,Spanish_step2,2020.2.3,Win32,60,,,,,,,,,,,,,,,,,left,0.55532,0,1,1,4,1,,,,,,,,,
,,,,,,,stim2/pa+20.wav,5f3344917a7a0b159bd0c375,2021-01-20_15h02.21.320,Spanish_step2,2020.2.3,Win32,60,,,,,,,,,,,,,,,,,left,0.38833,0,2,2,3,1,,,,,,,,,
,,,,,,,stim2/pa-30.wav,5f3344917a7a0b159bd0c375,2021-01-20_15h02.21.320,Spanish_step2,2020.2.3,Win32,60,,,,,,,,,,,,,,,,,right,0.53096,0,3,3,15,1,,,,,,,,,
,,,,,,,stim2/pa+35.wav,5f3344917a7a0b159bd0c375,2021-01-20_15h02.21.320,Spanish_step2,2020.2.3,Win32,60,,,,,,,,,,,,,,,,,right,0.399215,0,4,4,6,1,,,,,,,,,
,,,,,,,stim2/pa+15.wav,5f3344917a7a0b159bd0c375,2021-01-20_15h02.21.320,Spanish_step2,2020.2.3,Win32,60,,,,,,,,,,,,,,,,,right,0.42702,0,5,5,2,1,,,,,,,,,
,,,,,,,stim2/pa-25.wav,5f3344917a7a0b159bd0c375,2021-01-20_15h02.21.320,Spanish_step2,2020.2.3,Win32,60,,,,,,,,,,,,,,,,,right,0.489705,0,6,6,14,1,,,,,,,,,
,,,,,,,stim2/pa-20.wav,5f3344917a7a0b159bd0c375,2021-01-20_15h02.21.320,Spanish_step2,2020.2.3,Win32,60,,,,,,,,,,,,,,,,,right,1.116905,0,7,7,13,1,,,,,,,,,
,,,,,,,stim2/pa-10.wav,5f3344917a7a0b159bd0c375,2021-01-20_15h02.21.320,Spanish_step2,2020.2.3,Win32,60,,,,,,,,,,,,,,,,,right,0.948735,0,8,8,11,1,,,,,,,,,
,,,,,,,stim2/pa+50.wav,5f3344917a7a0b159bd0c375,2021-01-20_15h02.21.320,Spanish_step2,2020.2.3,Win32,60,,,,,,,,,,,,,,,,,left,0.46795,0,9,9,9,1,,,,,,,,,
,,,,,,,stim2/pa+05.wav,5f3344917a7a0b159bd0c375,2021-01-20_15h02.21.320,Spanish_step2,2020.2.3,Win32,60,,,,,,,,,,,,,,,,,left,0.442965,0,10,10,0,1,,,,,,,,,
,,,,,,,stim2/pa-35.wav,5f3344917a7a0b159bd0c375,2021-01-20_15h02.21.320,Spanish_step2,2020.2.3,Win32,60,,,,,,,,,,,,,,,,,right,0.794115,0,11,11,16,1,,,,,,,,,
,,,,,,,stim2/pa+40.wav,5f3344917a7a0b159bd0c375,2021-01-20_15h02.21.320,Spanish_step2,2020.2.3,Win32,60,,,,,,,,,,,,,,,,,right,0.47534,0,12,12,7,1,,,,,,,,,
,,,,,,,stim2/pa-05.wav,5f3344917a7a0b159bd0c375,2021-01-20_15h02.21.320,Spanish_step2,2020.2.3,Win32,60,,,,,,,,,,,,,,,,,left,1.31794,0,13,13,10,1,,,,,,,,,
,,,,,,,stim2/pa-15.wav,5f3344917a7a0b159bd0c375,2021-01-20_15h02.21.320,Spanish_step2,2020.2.3,Win32,60,,,,,,,,,,,,,,,,,right,0.565295,0,14,14,12,1,,,,,,,,,
,,,,,,,stim2/pa+45.wav,5f3344917a7a0b159bd0c375,2021-01-20_15h02.21.320,Spanish_step2,2020.2.3,Win32,60,,,,,,,,,,,,,,,,,left,0.424015,0,15,15,8,1,,,,,,,,,
,,,,,,,stim2/pa+30.wav,5f3344917a7a0b159bd0c375,2021-01-20_15h02.21.320,Spanish_step2,2020.2.3,Win32,60,,,,,,,,,,,,,,,,,left,0.595615,0,16,16,5,1,,,,,,,,,
,,,,,,,stim2/pa+35.wav,5f3344917a7a0b159bd0c375,2021-01-20_15h02.21.320,Spanish_step2,2020.2.3,Win32,60,,,,,,,,,,,,,,,,,left,0.744725,1,0,17,6,1,,,,,,,,,
,,,,,,,stim2/pa+25.wav,5f3344917a7a0b159bd0c375,2021-01-20_15h02.21.320,Spanish_step2,2020.2.3,Win32,60,,,,,,,,,,,,,,,,,right,0.798035,1,1,18,4,1,,,,,,,,,
,,,,,,,stim2/pa+30.wav,5f3344917a7a0b159bd0c375,2021-01-20_15h02.21.320,Spanish_step2,2020.2.3,Win32,60,,,,,,,,,,,,,,,,,right,0.46841,1,2,19,5,1,,,,,,,,,
,,,,,,,stim2/pa-25.wav,5f3344917a7a0b159bd0c375,2021-01-20_15h02.21.320,Spanish_step2,2020.2.3,Win32,60,,,,,,,,,,,,,,,,,right,0.436025,1,3,20,14,1,,,,,,,,,
,,,,,,,stim2/pa+10.wav,5f3344917a7a0b159bd0c375,2021-01-20_15h02.21.320,Spanish_step2,2020.2.3,Win32,60,,,,,,,,,,,,,,,,,right,0.358185,1,4,21,1,1,,,,,,,,,
,,,,,,,stim2/pa+15.wav,5f3344917a7a0b159bd0c375,2021-01-20_15h02.21.320,Spanish_step2,2020.2.3,Win32,60,,,,,,,,,,,,,,,,,left,0.2374,1,5,22,2,1,,,,,,,,,
,,,,,,,stim2/pa+20.wav,5f3344917a7a0b159bd0c375,2021-01-20_15h02.21.320,Spanish_step2,2020.2.3,Win32,60,,,,,,,,,,,,,,,,,left,0.40447,1,6,23,3,1,,,,,,,,,
,,,,,,,stim2/pa+05.wav,5f3344917a7a0b159bd0c375,2021-01-20_15h02.21.320,Spanish_step2,2020.2.3,Win32,60,,,,,,,,,,,,,,,,,left,0.534165,1,7,24,0,1,,,,,,,,,
,,,,,,,stim2/pa-15.wav,5f3344917a7a0b159bd0c375,2021-01-20_15h02.21.320,Spanish_step2,2020.2.3,Win32,60,,,,,,,,,,,,,,,,,right,0.561425,1,8,25,12,1,,,,,,,,,
,,,,,,,stim2/pa-35.wav,5f3344917a7a0b159bd0c375,2021-01-20_15h02.21.320,Spanish_step2,2020.2.3,Win32,60,,,,,,,,,,,,,,,,,right,0.56137,1,9,26,16,1,,,,,,,,,
,,,,,,,stim2/pa-30.wav,5f3344917a7a0b159bd0c375,2021-01-20_15h02.21.320,Spanish_step2,2020.2.3,Win32,60,,,,,,,,,,,,,,,,,right,0.484765,1,10,27,15,1,,,,,,,,,
,,,,,,,stim2/pa-10.wav,5f3344917a7a0b159bd0c375,2021-01-20_15h02.21.320,Spanish_step2,2020.2.3,Win32,60,,,,,,,,,,,,,,,,,left,0.461595,1,11,28,11,1,,,,,,,,,
,,,,,,,stim2/pa-05.wav,5f3344917a7a0b159bd0c375,2021-01-20_15h02.21.320,Spanish_step2,2020.2.3,Win32,60,,,,,,,,,,,,,,,,,left,0.486265,1,12,29,10,1,,,,,,,,,
,,,,,,,stim2/pa+45.wav,5f3344917a7a0b159bd0c375,2021-01-20_15h02.21.320,Spanish_step2,2020.2.3,Win32,60,,,,,,,,,,,,,,,,,left,0.474545,1,13,30,8,1,,,,,,,,,
,,,,,,,stim2/pa-20.wav,5f3344917a7a0b159bd0c375,2021-01-20_15h02.21.320,Spanish_step2,2020.2.3,Win32,60,,,,,,,,,,,,,,,,,left,0.436285,1,14,31,13,1,,,,,,,,,
,,,,,,,stim2/pa+40.wav,5f3344917a7a0b159bd0c375,2021-01-20_15h02.21.320,Spanish_step2,2020.2.3,Win32,60,,,,,,,,,,,,,,,,,left,0.38012,1,15,32,7,1,,,,,,,,,
,,,,,,,stim2/pa+50.wav,5f3344917a7a0b159bd0c375,2021-01-20_15h02.21.320,Spanish_step2,2020.2.3,Win32,60,,,,,,,,,,,,,,,,,left,0.463175,1,16,33,9,1,,,,,,,,,
,,,,,,,stim2/pa-20.wav,5f3344917a7a0b159bd0c375,2021-01-20_15h02.21.320,Spanish_step2,2020.2.3,Win32,60,,,,,,,,,,,,,,,,,left,0.409395,2,0,34,13,1,,,,,,,,,
,,,,,,,stim2/pa-25.wav,5f3344917a7a0b159bd0c375,2021-01-20_15h02.21.320,Spanish_step2,2020.2.3,Win32,60,,,,,,,,,,,,,,,,,right,0.413865,2,1,35,14,1,,,,,,,,,
,,,,,,,stim2/pa+30.wav,5f3344917a7a0b159bd0c375,2021-01-20_15h02.21.320,Spanish_step2,2020.2.3,Win32,60,,,,,,,,,,,,,,,,,right,0.29896,2,2,36,5,1,,,,,,,,,
,,,,,,,stim2/pa-05.wav,5f3344917a7a0b159bd0c375,2021-01-20_15h02.21.320,Spanish_step2,2020.2.3,Win32,60,,,,,,,,,,,,,,,,,right,0.3582,2,3,37,10,1,,,,,,,,,
,,,,,,,stim2/pa+05.wav,5f3344917a7a0b159bd0c375,2021-01-20_15h02.21.320,Spanish_step2,2020.2.3,Win32,60,,,,,,,,,,,,,,,,,right,0.32096,2,4,38,0,1,,,,,,,,,
,,,,,,,stim2/pa-15.wav,5f3344917a7a0b159bd0c375,2021-01-20_15h02.21.320,Spanish_step2,2020.2.3,Win32,60,,,,,,,,,,,,,,,,,left,0.22667,2,5,39,12,1,,,,,,,,,
,,,,,,,stim2/pa+40.wav,5f3344917a7a0b159bd0c375,2021-01-20_15h02.21.320,Spanish_step2,2020.2.3,Win32,60,,,,,,,,,,,,,,,,,left,0.490415,2,6,40,7,1,,,,,,,,,
,,,,,,,stim2/pa+35.wav,5f3344917a7a0b159bd0c375,2021-01-20_15h02.21.320,Spanish_step2,2020.2.3,Win32,60,,,,,,,,,,,,,,,,,left,0.41555,2,7,41,6,1,,,,,,,,,
,,,,,,,stim2/pa-35.wav,5f3344917a7a0b159bd0c375,2021-01-20_15h02.21.320,Spanish_step2,2020.2.3,Win32,60,,,,,,,,,,,,,,,,,right,0.668745,2,8,42,16,1,,,,,,,,,
,,,,,,,stim2/pa+10.wav,5f3344917a7a0b159bd0c375,2021-01-20_15h02.21.320,Spanish_step2,2020.2.3,Win32,60,,,,,,,,,,,,,,,,,left,1.8326,2,9,43,1,1,,,,,,,,,
,,,,,,,stim2/pa+15.wav,5f3344917a7a0b159bd0c375,2021-01-20_15h02.21.320,Spanish_step2,2020.2.3,Win32,60,,,,,,,,,,,,,,,,,right,0.54543,2,10,44,2,1,,,,,,,,,
,,,,,,,stim2/pa+45.wav,5f3344917a7a0b159bd0c375,2021-01-20_15h02.21.320,Spanish_step2,2020.2.3,Win32,60,,,,,,,,,,,,,,,,,left,0.46768,2,11,45,8,1,,,,,,,,,
,,,,,,,stim2/pa+25.wav,5f3344917a7a0b159bd0c375,2021-01-20_15h02.21.320,Spanish_step2,2020.2.3,Win32,60,,,,,,,,,,,,,,,,,right,0.449675,2,12,46,4,1,,,,,,,,,
,,,,,,,stim2/pa-30.wav,5f3344917a7a0b159bd0c375,2021-01-20_15h02.21.320,Spanish_step2,2020.2.3,Win32,60,,,,,,,,,,,,,,,,,right,0.49825,2,13,47,15,1,,,,,,,,,
,,,,,,,stim2/pa+50.wav,5f3344917a7a0b159bd0c375,2021-01-20_15h02.21.320,Spanish_step2,2020.2.3,Win32,60,,,,,,,,,,,,,,,,,right,0.57899,2,14,48,9,1,,,,,,,,,
,,,,,,,stim2/pa-10.wav,5f3344917a7a0b159bd0c375,2021-01-20_15h02.21.320,Spanish_step2,2020.2.3,Win32,60,,,,,,,,,,,,,,,,,right,0.469025,2,15,49,11,1,,,,,,,,,
,,,,,,,stim2/pa+20.wav,5f3344917a7a0b159bd0c375,2021-01-20_15h02.21.320,Spanish_step2,2020.2.3,Win32,60,,,,,,,,,,,,,,,,,right,0.405635,2,16,50,3,1,,,,,,,,,
,,,,,,,stim2/pa-15.wav,5f3344917a7a0b159bd0c375,2021-01-20_15h02.21.320,Spanish_step2,2020.2.3,Win32,60,,,,,,,,,,,,,,,,,left,1.457295,,,,,,z,2.84976,0,0,0,12,1,,
,,,,,,,stim2/pa+30.wav,5f3344917a7a0b159bd0c375,2021-01-20_15h02.21.320,Spanish_step2,2020.2.3,Win32,60,,,,,,,,,,,,,,,,,left,0.52204,,,,,,,,0,1,1,5,1,,
,,,,,,,stim2/pa+15.wav,5f3344917a7a0b159bd0c375,2021-01-20_15h02.21.320,Spanish_step2,2020.2.3,Win32,60,,,,,,,,,,,,,,,,,left,0.421555,,,,,,,,0,2,2,2,1,,
,,,,,,,stim2/pa-20.wav,5f3344917a7a0b159bd0c375,2021-01-20_15h02.21.320,Spanish_step2,2020.2.3,Win32,60,,,,,,,,,,,,,,,,,right,0.588235,,,,,,,,0,3,3,13,1,,
,,,,,,,stim2/pa-25.wav,5f3344917a7a0b159bd0c375,2021-01-20_15h02.21.320,Spanish_step2,2020.2.3,Win32,60,,,,,,,,,,,,,,,,,right,0.387355,,,,,,,,0,4,4,14,1,,
,,,,,,,stim2/pa+35.wav,5f3344917a7a0b159bd0c375,2021-01-20_15h02.21.320,Spanish_step2,2020.2.3,Win32,60,,,,,,,,,,,,,,,,,right,0.524595,,,,,,,,0,5,5,6,1,,
,,,,,,,stim2/pa-10.wav,5f3344917a7a0b159bd0c375,2021-01-20_15h02.21.320,Spanish_step2,2020.2.3,Win32,60,,,,,,,,,,,,,,,,,right,0.7287,,,,,,,,0,6,6,11,1,,
,,,,,,,stim2/pa-30.wav,5f3344917a7a0b159bd0c375,2021-01-20_15h02.21.320,Spanish_step2,2020.2.3,Win32,60,,,,,,,,,,,,,,,,,right,0.83322,,,,,,,,0,7,7,15,1,,
,,,,,,,stim2/pa-35.wav,5f3344917a7a0b159bd0c375,2021-01-20_15h02.21.320,Spanish_step2,2020.2.3,Win32,60,,,,,,,,,,,,,,,,,right,0.831245,,,,,,,,0,8,8,16,1,,
,,,,,,,stim2/pa+25.wav,5f3344917a7a0b159bd0c375,2021-01-20_15h02.21.320,Spanish_step2,2020.2.3,Win32,60,,,,,,,,,,,,,,,,,right,0.983095,,,,,,,,0,9,9,4,1,,
,,,,,,,stim2/pa+10.wav,5f3344917a7a0b159bd0c375,2021-01-20_15h02.21.320,Spanish_step2,2020.2.3,Win32,60,,,,,,,,,,,,,,,,,left,0.581065,,,,,,,,0,10,10,1,1,,
,,,,,,,stim2/pa+40.wav,5f3344917a7a0b159bd0c375,2021-01-20_15h02.21.320,Spanish_step2,2020.2.3,Win32,60,,,,,,,,,,,,,,,,,left,0.41693,,,,,,,,0,11,11,7,1,,
,,,,,,,stim2/pa+50.wav,5f3344917a7a0b159bd0c375,2021-01-20_15h02.21.320,Spanish_step2,2020.2.3,Win32,60,,,,,,,,,,,,,,,,,left,0.588665,,,,,,,,0,12,12,9,1,,
,,,,,,,stim2/pa+20.wav,5f3344917a7a0b159bd0c375,2021-01-20_15h02.21.320,Spanish_step2,2020.2.3,Win32,60,,,,,,,,,,,,,,,,,left,0.54016,,,,,,,,0,13,13,3,1,,
,,,,,,,stim2/pa+05.wav,5f3344917a7a0b159bd0c375,2021-01-20_15h02.21.320,Spanish_step2,2020.2.3,Win32,60,,,,,,,,,,,,,,,,,right,0.492955,,,,,,,,0,14,14,0,1,,
,,,,,,,stim2/pa-05.wav,5f3344917a7a0b159bd0c375,2021-01-20_15h02.21.320,Spanish_step2,2020.2.3,Win32,60,,,,,,,,,,,,,,,,,right,0.6014,,,,,,,,0,15,15,10,1,,
,,,,,,,stim2/pa+45.wav,5f3344917a7a0b159bd0c375,2021-01-20_15h02.21.320,Spanish_step2,2020.2.3,Win32,60,,,,,,,,,,,,,,,,,left,0.429075,,,,,,,,0,16,16,8,1,,
,,,,,,,stim2/pa-10.wav,5f3344917a7a0b159bd0c375,2021-01-20_15h02.21.320,Spanish_step2,2020.2.3,Win32,60,,,,,,,,,,,,,,,,,left,0.527575,,,,,,,,1,0,17,11,1,,
,,,,,,,stim2/pa-25.wav,5f3344917a7a0b159bd0c375,2021-01-20_15h02.21.320,Spanish_step2,2020.2.3,Win32,60,,,,,,,,,,,,,,,,,right,0.371865,,,,,,,,1,1,18,14,1,,
,,,,,,,stim2/pa-30.wav,5f3344917a7a0b159bd0c375,2021-01-20_15h02.21.320,Spanish_step2,2020.2.3,Win32,60,,,,,,,,,,,,,,,,,right,0.355105,,,,,,,,1,2,19,15,1,,
,,,,,,,stim2/pa-35.wav,5f3344917a7a0b159bd0c375,2021-01-20_15h02.21.320,Spanish_step2,2020.2.3,Win32,60,,,,,,,,,,,,,,,,,right,0.377875,,,,,,,,1,3,20,16,1,,
,,,,,,,stim2/pa+15.wav,5f3344917a7a0b159bd0c375,2021-01-20_15h02.21.320,Spanish_step2,2020.2.3,Win32,60,,,,,,,,,,,,,,,,,right,0.360935,,,,,,,,1,4,21,2,1,,
,,,,,,,stim2/pa+10.wav,5f3344917a7a0b159bd0c375,2021-01-20_15h02.21.320,Spanish_step2,2020.2.3,Win32,60,,,,,,,,,,,,,,,,,right,0.387185,,,,,,,,1,5,22,1,1,,
,,,,,,,stim2/pa+20.wav,5f3344917a7a0b159bd0c375,2021-01-20_15h02.21.320,Spanish_step2,2020.2.3,Win32,60,,,,,,,,,,,,,,,,,right,0.297005,,,,,,,,1,6,23,3,1,,
,,,,,,,stim2/pa+30.wav,5f3344917a7a0b159bd0c375,2021-01-20_15h02.21.320,Spanish_step2,2020.2.3,Win32,60,,,,,,,,,,,,,,,,,right,0.345155,,,,,,,,1,7,24,5,1,,
,,,,,,,stim2/pa+40.wav,5f3344917a7a0b159bd0c375,2021-01-20_15h02.21.320,Spanish_step2,2020.2.3,Win32,60,,,,,,,,,,,,,,,,,right,0.322235,,,,,,,,1,8,25,7,1,,
,,,,,,,stim2/pa+50.wav,5f3344917a7a0b159bd0c375,2021-01-20_15h02.21.320,Spanish_step2,2020.2.3,Win32,60,,,,,,,,,,,,,,,,,left,0.406135,,,,,,,,1,9,26,9,1,,
,,,,,,,stim2/pa+35.wav,5f3344917a7a0b159bd0c375,2021-01-20_15h02.21.320,Spanish_step2,2020.2.3,Win32,60,,,,,,,,,,,,,,,,,left,0.27735,,,,,,,,1,10,27,6,1,,
,,,,,,,stim2/pa+25.wav,5f3344917a7a0b159bd0c375,2021-01-20_15h02.21.320,Spanish_step2,2020.2.3,Win32,60,,,,,,,,,,,,,,,,,left,0.282015,,,,,,,,1,11,28,4,1,,
,,,,,,,stim2/pa-05.wav,5f3344917a7a0b159bd0c375,2021-01-20_15h02.21.320,Spanish_step2,2020.2.3,Win32,60,,,,,,,,,,,,,,,,,left,0.272745,,,,,,,,1,12,29,10,1,,
,,,,,,,stim2/pa-15.wav,5f3344917a7a0b159bd0c375,2021-01-20_15h02.21.320,Spanish_step2,2020.2.3,Win32,60,,,,,,,,,,,,,,,,,left,0.589085,,,,,,,,1,13,30,12,1,,
,,,,,,,stim2/pa+45.wav,5f3344917a7a0b159bd0c375,2021-01-20_15h02.21.320,Spanish_step2,2020.2.3,Win32,60,,,,,,,,,,,,,,,,,right,0.263895,,,,,,,,1,14,31,8,1,,
,,,,,,,stim2/pa+05.wav,5f3344917a7a0b159bd0c375,2021-01-20_15h02.21.320,Spanish_step2,2020.2.3,Win32,60,,,,,,,,,,,,,,,,,right,0.37426,,,,,,,,1,15,32,0,1,,
,,,,,,,stim2/pa-20.wav,5f3344917a7a0b159bd0c375,2021-01-20_15h02.21.320,Spanish_step2,2020.2.3,Win32,60,,,,,,,,,,,,,,,,,right,0.29982,,,,,,,,1,16,33,13,1,,
,,,,,,,,5f3344917a7a0b159bd0c375,2021-01-20_15h02.21.320,Spanish_step2,2020.2.3,Win32,60,,,,,,,,,,,,,,,,,,,,,,,,,,,,,,,space,17.25155
