resp.keys,resp.rt,trials.thisRepN,trials.thisTrialN,trials.thisN,trials.thisIndex,trials.ran,stimuli,participant,date,expName,psychopyVersion,OS,frameRate,gotResponse.keys,gotResponse.rt,resp_2.keys,resp_2.rt,trials_2.thisRepN,trials_2.thisTrialN,trials_2.thisN,trials_2.thisIndex,trials_2.ran,key_resp_3.keys,key_resp_3.rt,trials_4.thisRepN,trials_4.thisTrialN,trials_4.thisN,trials_4.thisIndex,trials_4.ran,resp_3.keys,resp_3.rt,trials_3.thisRepN,trials_3.thisTrialN,trials_3.thisN,trials_3.thisIndex,trials_3.ran,key_resp_2.keys,key_resp_2.rt,trials_5.thisRepN,trials_5.thisTrialN,trials_5.thisN,trials_5.thisIndex,trials_5.ran,key_resp.keys,key_resp.rt
right,2.784225,0,0,0,1,1,stim/VC_11.wav,5f6265b707ccb62ae21f22a2,2021-02-24_16h07.42.440,Spanish_step2,2020.2.3,Win32,60,,,,,,,,,,,,,,,,,,,,,,,,,,,,,,,,
left,0.700075,0,1,1,0,1,stim/VC_01.wav,5f6265b707ccb62ae21f22a2,2021-02-24_16h07.42.440,Spanish_step2,2020.2.3,Win32,60,,,,,,,,,,,,,,,,,,,,,,,,,,,,,,,,
,,,,,,,stim/VC_03.wav,5f6265b707ccb62ae21f22a2,2021-02-24_16h07.42.440,Spanish_step2,2020.2.3,Win32,60,space,1.22286,left,0.784995,0,0,0,2,1,,,,,,,,,,,,,,,,,,,,,,,
,,,,,,,stim/VC_04.wav,5f6265b707ccb62ae21f22a2,2021-02-24_16h07.42.440,Spanish_step2,2020.2.3,Win32,60,,,left,0.5563,0,1,1,3,1,,,,,,,,,,,,,,,,,,,,,,,
,,,,,,,stim/VC_11.wav,5f6265b707ccb62ae21f22a2,2021-02-24_16h07.42.440,Spanish_step2,2020.2.3,Win32,60,,,right,0.52933,0,2,2,10,1,,,,,,,,,,,,,,,,,,,,,,,
,,,,,,,stim/VC_09.wav,5f6265b707ccb62ae21f22a2,2021-02-24_16h07.42.440,Spanish_step2,2020.2.3,Win32,60,,,right,0.722705,0,3,3,8,1,,,,,,,,,,,,,,,,,,,,,,,
,,,,,,,stim/VC_08.wav,5f6265b707ccb62ae21f22a2,2021-02-24_16h07.42.440,Spanish_step2,2020.2.3,Win32,60,,,right,0.705065,0,4,4,7,1,,,,,,,,,,,,,,,,,,,,,,,
,,,,,,,stim/VC_10.wav,5f6265b707ccb62ae21f22a2,2021-02-24_16h07.42.440,Spanish_step2,2020.2.3,Win32,60,,,right,0.67204,0,5,5,9,1,,,,,,,,,,,,,,,,,,,,,,,
,,,,,,,stim/VC_02.wav,5f6265b707ccb62ae21f22a2,2021-02-24_16h07.42.440,Spanish_step2,2020.2.3,Win32,60,,,left,0.559775,0,6,6,1,1,,,,,,,,,,,,,,,,,,,,,,,
,,,,,,,stim/VC_06.wav,5f6265b707ccb62ae21f22a2,2021-02-24_16h07.42.440,Spanish_step2,2020.2.3,Win32,60,,,right,1.422985,0,7,7,5,1,,,,,,,,,,,,,,,,,,,,,,,
,,,,,,,stim/VC_01.wav,5f6265b707ccb62ae21f22a2,2021-02-24_16h07.42.440,Spanish_step2,2020.2.3,Win32,60,,,left,0.53607,0,8,8,0,1,,,,,,,,,,,,,,,,,,,,,,,
,,,,,,,stim/VC_07.wav,5f6265b707ccb62ae21f22a2,2021-02-24_16h07.42.440,Spanish_step2,2020.2.3,Win32,60,,,right,0.575405,0,9,9,6,1,,,,,,,,,,,,,,,,,,,,,,,
,,,,,,,stim/VC_05.wav,5f6265b707ccb62ae21f22a2,2021-02-24_16h07.42.440,Spanish_step2,2020.2.3,Win32,60,,,left,2.35744,0,10,10,4,1,,,,,,,,,,,,,,,,,,,,,,,
,,,,,,,stim/VC_03.wav,5f6265b707ccb62ae21f22a2,2021-02-24_16h07.42.440,Spanish_step2,2020.2.3,Win32,60,,,left,0.66879,1,0,11,2,1,,,,,,,,,,,,,,,,,,,,,,,
,,,,,,,stim/VC_07.wav,5f6265b707ccb62ae21f22a2,2021-02-24_16h07.42.440,Spanish_step2,2020.2.3,Win32,60,,,right,0.484675,1,1,12,6,1,,,,,,,,,,,,,,,,,,,,,,,
,,,,,,,stim/VC_06.wav,5f6265b707ccb62ae21f22a2,2021-02-24_16h07.42.440,Spanish_step2,2020.2.3,Win32,60,,,left,1.260635,1,2,13,5,1,,,,,,,,,,,,,,,,,,,,,,,
,,,,,,,stim/VC_11.wav,5f6265b707ccb62ae21f22a2,2021-02-24_16h07.42.440,Spanish_step2,2020.2.3,Win32,60,,,right,0.68005,1,3,14,10,1,,,,,,,,,,,,,,,,,,,,,,,
,,,,,,,stim/VC_10.wav,5f6265b707ccb62ae21f22a2,2021-02-24_16h07.42.440,Spanish_step2,2020.2.3,Win32,60,,,right,0.557735,1,4,15,9,1,,,,,,,,,,,,,,,,,,,,,,,
,,,,,,,stim/VC_02.wav,5f6265b707ccb62ae21f22a2,2021-02-24_16h07.42.440,Spanish_step2,2020.2.3,Win32,60,,,left,0.60161,1,5,16,1,1,,,,,,,,,,,,,,,,,,,,,,,
,,,,,,,stim/VC_01.wav,5f6265b707ccb62ae21f22a2,2021-02-24_16h07.42.440,Spanish_step2,2020.2.3,Win32,60,,,left,0.48891,1,6,17,0,1,,,,,,,,,,,,,,,,,,,,,,,
,,,,,,,stim/VC_08.wav,5f6265b707ccb62ae21f22a2,2021-02-24_16h07.42.440,Spanish_step2,2020.2.3,Win32,60,,,right,0.63459,1,7,18,7,1,,,,,,,,,,,,,,,,,,,,,,,
,,,,,,,stim/VC_09.wav,5f6265b707ccb62ae21f22a2,2021-02-24_16h07.42.440,Spanish_step2,2020.2.3,Win32,60,,,right,0.5285,1,8,19,8,1,,,,,,,,,,,,,,,,,,,,,,,
,,,,,,,stim/VC_05.wav,5f6265b707ccb62ae21f22a2,2021-02-24_16h07.42.440,Spanish_step2,2020.2.3,Win32,60,,,left,1.857575,1,9,20,4,1,,,,,,,,,,,,,,,,,,,,,,,
,,,,,,,stim/VC_04.wav,5f6265b707ccb62ae21f22a2,2021-02-24_16h07.42.440,Spanish_step2,2020.2.3,Win32,60,,,left,0.68958,1,10,21,3,1,,,,,,,,,,,,,,,,,,,,,,,
,,,,,,,stim/VC_06.wav,5f6265b707ccb62ae21f22a2,2021-02-24_16h07.42.440,Spanish_step2,2020.2.3,Win32,60,,,left,1.850695,2,0,22,5,1,,,,,,,,,,,,,,,,,,,,,,,
,,,,,,,stim/VC_03.wav,5f6265b707ccb62ae21f22a2,2021-02-24_16h07.42.440,Spanish_step2,2020.2.3,Win32,60,,,left,0.569185,2,1,23,2,1,,,,,,,,,,,,,,,,,,,,,,,
,,,,,,,stim/VC_08.wav,5f6265b707ccb62ae21f22a2,2021-02-24_16h07.42.440,Spanish_step2,2020.2.3,Win32,60,,,right,0.553575,2,2,24,7,1,,,,,,,,,,,,,,,,,,,,,,,
,,,,,,,stim/VC_01.wav,5f6265b707ccb62ae21f22a2,2021-02-24_16h07.42.440,Spanish_step2,2020.2.3,Win32,60,,,left,0.56933,2,3,25,0,1,,,,,,,,,,,,,,,,,,,,,,,
,,,,,,,stim/VC_02.wav,5f6265b707ccb62ae21f22a2,2021-02-24_16h07.42.440,Spanish_step2,2020.2.3,Win32,60,,,left,0.49361,2,4,26,1,1,,,,,,,,,,,,,,,,,,,,,,,
,,,,,,,stim/VC_09.wav,5f6265b707ccb62ae21f22a2,2021-02-24_16h07.42.440,Spanish_step2,2020.2.3,Win32,60,,,right,0.59157,2,5,27,8,1,,,,,,,,,,,,,,,,,,,,,,,
,,,,,,,stim/VC_05.wav,5f6265b707ccb62ae21f22a2,2021-02-24_16h07.42.440,Spanish_step2,2020.2.3,Win32,60,,,left,1.28817,2,6,28,4,1,,,,,,,,,,,,,,,,,,,,,,,
,,,,,,,stim/VC_11.wav,5f6265b707ccb62ae21f22a2,2021-02-24_16h07.42.440,Spanish_step2,2020.2.3,Win32,60,,,right,0.50886,2,7,29,10,1,,,,,,,,,,,,,,,,,,,,,,,
,,,,,,,stim/VC_10.wav,5f6265b707ccb62ae21f22a2,2021-02-24_16h07.42.440,Spanish_step2,2020.2.3,Win32,60,,,right,0.517595,2,8,30,9,1,,,,,,,,,,,,,,,,,,,,,,,
,,,,,,,stim/VC_07.wav,5f6265b707ccb62ae21f22a2,2021-02-24_16h07.42.440,Spanish_step2,2020.2.3,Win32,60,,,right,1.29912,2,9,31,6,1,,,,,,,,,,,,,,,,,,,,,,,
,,,,,,,stim/VC_04.wav,5f6265b707ccb62ae21f22a2,2021-02-24_16h07.42.440,Spanish_step2,2020.2.3,Win32,60,,,left,0.506695,2,10,32,3,1,,,,,,,,,,,,,,,,,,,,,,,
,,,,,,,stim/VC_02.wav,5f6265b707ccb62ae21f22a2,2021-02-24_16h07.42.440,Spanish_step2,2020.2.3,Win32,60,,,left,0.663475,,,,,,7,4.4033,0,0,0,1,1,,,,,,,,,,,,,,,,
,,,,,,,stim/VC_09.wav,5f6265b707ccb62ae21f22a2,2021-02-24_16h07.42.440,Spanish_step2,2020.2.3,Win32,60,,,right,0.813865,,,,,,,,0,1,1,8,1,,,,,,,,,,,,,,,,
,,,,,,,stim/VC_11.wav,5f6265b707ccb62ae21f22a2,2021-02-24_16h07.42.440,Spanish_step2,2020.2.3,Win32,60,,,right,0.77052,,,,,,,,0,2,2,10,1,,,,,,,,,,,,,,,,
,,,,,,,stim/VC_06.wav,5f6265b707ccb62ae21f22a2,2021-02-24_16h07.42.440,Spanish_step2,2020.2.3,Win32,60,,,right,1.28562,,,,,,,,0,3,3,5,1,,,,,,,,,,,,,,,,
,,,,,,,stim/VC_03.wav,5f6265b707ccb62ae21f22a2,2021-02-24_16h07.42.440,Spanish_step2,2020.2.3,Win32,60,,,left,0.56886,,,,,,,,0,4,4,2,1,,,,,,,,,,,,,,,,
,,,,,,,stim/VC_07.wav,5f6265b707ccb62ae21f22a2,2021-02-24_16h07.42.440,Spanish_step2,2020.2.3,Win32,60,,,right,1.06271,,,,,,,,0,5,5,6,1,,,,,,,,,,,,,,,,
,,,,,,,stim/VC_08.wav,5f6265b707ccb62ae21f22a2,2021-02-24_16h07.42.440,Spanish_step2,2020.2.3,Win32,60,,,right,0.575275,,,,,,,,0,6,6,7,1,,,,,,,,,,,,,,,,
,,,,,,,stim/VC_10.wav,5f6265b707ccb62ae21f22a2,2021-02-24_16h07.42.440,Spanish_step2,2020.2.3,Win32,60,,,right,0.67639,,,,,,,,0,7,7,9,1,,,,,,,,,,,,,,,,
,,,,,,,stim/VC_04.wav,5f6265b707ccb62ae21f22a2,2021-02-24_16h07.42.440,Spanish_step2,2020.2.3,Win32,60,,,left,0.61875,,,,,,,,0,8,8,3,1,,,,,,,,,,,,,,,,
,,,,,,,stim/VC_01.wav,5f6265b707ccb62ae21f22a2,2021-02-24_16h07.42.440,Spanish_step2,2020.2.3,Win32,60,,,left,0.552795,,,,,,,,0,9,9,0,1,,,,,,,,,,,,,,,,
,,,,,,,stim/VC_05.wav,5f6265b707ccb62ae21f22a2,2021-02-24_16h07.42.440,Spanish_step2,2020.2.3,Win32,60,,,left,1.00953,,,,,,,,0,10,10,4,1,,,,,,,,,,,,,,,,
,,,,,,,stim/VC_08.wav,5f6265b707ccb62ae21f22a2,2021-02-24_16h07.42.440,Spanish_step2,2020.2.3,Win32,60,,,right,0.66712,,,,,,,,1,0,11,7,1,,,,,,,,,,,,,,,,
,,,,,,,stim/VC_07.wav,5f6265b707ccb62ae21f22a2,2021-02-24_16h07.42.440,Spanish_step2,2020.2.3,Win32,60,,,right,1.12657,,,,,,,,1,1,12,6,1,,,,,,,,,,,,,,,,
,,,,,,,stim/VC_01.wav,5f6265b707ccb62ae21f22a2,2021-02-24_16h07.42.440,Spanish_step2,2020.2.3,Win32,60,,,left,0.60319,,,,,,,,1,2,13,0,1,,,,,,,,,,,,,,,,
,,,,,,,stim/VC_03.wav,5f6265b707ccb62ae21f22a2,2021-02-24_16h07.42.440,Spanish_step2,2020.2.3,Win32,60,,,left,0.542845,,,,,,,,1,3,14,2,1,,,,,,,,,,,,,,,,
,,,,,,,stim/VC_09.wav,5f6265b707ccb62ae21f22a2,2021-02-24_16h07.42.440,Spanish_step2,2020.2.3,Win32,60,,,right,0.575235,,,,,,,,1,4,15,8,1,,,,,,,,,,,,,,,,
,,,,,,,stim/VC_11.wav,5f6265b707ccb62ae21f22a2,2021-02-24_16h07.42.440,Spanish_step2,2020.2.3,Win32,60,,,right,0.651125,,,,,,,,1,5,16,10,1,,,,,,,,,,,,,,,,
,,,,,,,stim/VC_10.wav,5f6265b707ccb62ae21f22a2,2021-02-24_16h07.42.440,Spanish_step2,2020.2.3,Win32,60,,,right,0.58641,,,,,,,,1,6,17,9,1,,,,,,,,,,,,,,,,
,,,,,,,stim/VC_02.wav,5f6265b707ccb62ae21f22a2,2021-02-24_16h07.42.440,Spanish_step2,2020.2.3,Win32,60,,,left,0.57591,,,,,,,,1,7,18,1,1,,,,,,,,,,,,,,,,
,,,,,,,stim/VC_06.wav,5f6265b707ccb62ae21f22a2,2021-02-24_16h07.42.440,Spanish_step2,2020.2.3,Win32,60,,,left,0.884435,,,,,,,,1,8,19,5,1,,,,,,,,,,,,,,,,
,,,,,,,stim/VC_04.wav,5f6265b707ccb62ae21f22a2,2021-02-24_16h07.42.440,Spanish_step2,2020.2.3,Win32,60,,,left,0.61624,,,,,,,,1,9,20,3,1,,,,,,,,,,,,,,,,
,,,,,,,stim/VC_05.wav,5f6265b707ccb62ae21f22a2,2021-02-24_16h07.42.440,Spanish_step2,2020.2.3,Win32,60,,,left,0.50042,,,,,,,,1,10,21,4,1,,,,,,,,,,,,,,,,
,,,,,,,stim2/pa-20.wav,5f6265b707ccb62ae21f22a2,2021-02-24_16h07.42.440,Spanish_step2,2020.2.3,Win32,60,,,,,,,,,,,,,,,,,left,2.211175,0,0,0,13,1,,,,,,,,,
,,,,,,,stim2/pa-10.wav,5f6265b707ccb62ae21f22a2,2021-02-24_16h07.42.440,Spanish_step2,2020.2.3,Win32,60,,,,,,,,,,,,,,,,,left,0.50307,0,1,1,11,1,,,,,,,,,
,,,,,,,stim2/pa-35.wav,5f6265b707ccb62ae21f22a2,2021-02-24_16h07.42.440,Spanish_step2,2020.2.3,Win32,60,,,,,,,,,,,,,,,,,right,0.576375,0,2,2,16,1,,,,,,,,,
,,,,,,,stim2/pa-15.wav,5f6265b707ccb62ae21f22a2,2021-02-24_16h07.42.440,Spanish_step2,2020.2.3,Win32,60,,,,,,,,,,,,,,,,,left,0.993165,0,3,3,12,1,,,,,,,,,
,,,,,,,stim2/pa-30.wav,5f6265b707ccb62ae21f22a2,2021-02-24_16h07.42.440,Spanish_step2,2020.2.3,Win32,60,,,,,,,,,,,,,,,,,right,0.60535,0,4,4,15,1,,,,,,,,,
,,,,,,,stim2/pa+05.wav,5f6265b707ccb62ae21f22a2,2021-02-24_16h07.42.440,Spanish_step2,2020.2.3,Win32,60,,,,,,,,,,,,,,,,,left,0.554185,0,5,5,0,1,,,,,,,,,
,,,,,,,stim2/pa+45.wav,5f6265b707ccb62ae21f22a2,2021-02-24_16h07.42.440,Spanish_step2,2020.2.3,Win32,60,,,,,,,,,,,,,,,,,left,1.151605,0,6,6,8,1,,,,,,,,,
,,,,,,,stim2/pa+20.wav,5f6265b707ccb62ae21f22a2,2021-02-24_16h07.42.440,Spanish_step2,2020.2.3,Win32,60,,,,,,,,,,,,,,,,,left,0.64073,0,7,7,3,1,,,,,,,,,
,,,,,,,stim2/pa-25.wav,5f6265b707ccb62ae21f22a2,2021-02-24_16h07.42.440,Spanish_step2,2020.2.3,Win32,60,,,,,,,,,,,,,,,,,right,0.455485,0,8,8,14,1,,,,,,,,,
,,,,,,,stim2/pa-05.wav,5f6265b707ccb62ae21f22a2,2021-02-24_16h07.42.440,Spanish_step2,2020.2.3,Win32,60,,,,,,,,,,,,,,,,,left,1.37029,0,9,9,10,1,,,,,,,,,
,,,,,,,stim2/pa+35.wav,5f6265b707ccb62ae21f22a2,2021-02-24_16h07.42.440,Spanish_step2,2020.2.3,Win32,60,,,,,,,,,,,,,,,,,right,0.625885,0,10,10,6,1,,,,,,,,,
,,,,,,,stim2/pa+25.wav,5f6265b707ccb62ae21f22a2,2021-02-24_16h07.42.440,Spanish_step2,2020.2.3,Win32,60,,,,,,,,,,,,,,,,,left,0.691205,0,11,11,4,1,,,,,,,,,
,,,,,,,stim2/pa+50.wav,5f6265b707ccb62ae21f22a2,2021-02-24_16h07.42.440,Spanish_step2,2020.2.3,Win32,60,,,,,,,,,,,,,,,,,left,0.95024,0,12,12,9,1,,,,,,,,,
,,,,,,,stim2/pa+30.wav,5f6265b707ccb62ae21f22a2,2021-02-24_16h07.42.440,Spanish_step2,2020.2.3,Win32,60,,,,,,,,,,,,,,,,,left,0.65188,0,13,13,5,1,,,,,,,,,
,,,,,,,stim2/pa+15.wav,5f6265b707ccb62ae21f22a2,2021-02-24_16h07.42.440,Spanish_step2,2020.2.3,Win32,60,,,,,,,,,,,,,,,,,left,0.82783,0,14,14,2,1,,,,,,,,,
,,,,,,,stim2/pa+40.wav,5f6265b707ccb62ae21f22a2,2021-02-24_16h07.42.440,Spanish_step2,2020.2.3,Win32,60,,,,,,,,,,,,,,,,,left,1.396095,0,15,15,7,1,,,,,,,,,
,,,,,,,stim2/pa+10.wav,5f6265b707ccb62ae21f22a2,2021-02-24_16h07.42.440,Spanish_step2,2020.2.3,Win32,60,,,,,,,,,,,,,,,,,left,1.53977,0,16,16,1,1,,,,,,,,,
,,,,,,,stim2/pa+10.wav,5f6265b707ccb62ae21f22a2,2021-02-24_16h07.42.440,Spanish_step2,2020.2.3,Win32,60,,,,,,,,,,,,,,,,,right,0.59139,1,0,17,1,1,,,,,,,,,
,,,,,,,stim2/pa-20.wav,5f6265b707ccb62ae21f22a2,2021-02-24_16h07.42.440,Spanish_step2,2020.2.3,Win32,60,,,,,,,,,,,,,,,,,left,1.019765,1,1,18,13,1,,,,,,,,,
,,,,,,,stim2/pa+30.wav,5f6265b707ccb62ae21f22a2,2021-02-24_16h07.42.440,Spanish_step2,2020.2.3,Win32,60,,,,,,,,,,,,,,,,,left,0.70017,1,2,19,5,1,,,,,,,,,
,,,,,,,stim2/pa+50.wav,5f6265b707ccb62ae21f22a2,2021-02-24_16h07.42.440,Spanish_step2,2020.2.3,Win32,60,,,,,,,,,,,,,,,,,right,0.527415,1,3,20,9,1,,,,,,,,,
,,,,,,,stim2/pa+35.wav,5f6265b707ccb62ae21f22a2,2021-02-24_16h07.42.440,Spanish_step2,2020.2.3,Win32,60,,,,,,,,,,,,,,,,,left,0.900685,1,4,21,6,1,,,,,,,,,
,,,,,,,stim2/pa-25.wav,5f6265b707ccb62ae21f22a2,2021-02-24_16h07.42.440,Spanish_step2,2020.2.3,Win32,60,,,,,,,,,,,,,,,,,right,0.62426,1,5,22,14,1,,,,,,,,,
,,,,,,,stim2/pa+15.wav,5f6265b707ccb62ae21f22a2,2021-02-24_16h07.42.440,Spanish_step2,2020.2.3,Win32,60,,,,,,,,,,,,,,,,,right,1.59114,1,6,23,2,1,,,,,,,,,
,,,,,,,stim2/pa+20.wav,5f6265b707ccb62ae21f22a2,2021-02-24_16h07.42.440,Spanish_step2,2020.2.3,Win32,60,,,,,,,,,,,,,,,,,left,0.550225,1,7,24,3,1,,,,,,,,,
,,,,,,,stim2/pa-10.wav,5f6265b707ccb62ae21f22a2,2021-02-24_16h07.42.440,Spanish_step2,2020.2.3,Win32,60,,,,,,,,,,,,,,,,,right,0.626765,1,8,25,11,1,,,,,,,,,
,,,,,,,stim2/pa+40.wav,5f6265b707ccb62ae21f22a2,2021-02-24_16h07.42.440,Spanish_step2,2020.2.3,Win32,60,,,,,,,,,,,,,,,,,left,0.611695,1,9,26,7,1,,,,,,,,,
,,,,,,,stim2/pa+45.wav,5f6265b707ccb62ae21f22a2,2021-02-24_16h07.42.440,Spanish_step2,2020.2.3,Win32,60,,,,,,,,,,,,,,,,,left,0.563305,1,10,27,8,1,,,,,,,,,
,,,,,,,stim2/pa-05.wav,5f6265b707ccb62ae21f22a2,2021-02-24_16h07.42.440,Spanish_step2,2020.2.3,Win32,60,,,,,,,,,,,,,,,,,left,1.10241,1,11,28,10,1,,,,,,,,,
,,,,,,,stim2/pa-35.wav,5f6265b707ccb62ae21f22a2,2021-02-24_16h07.42.440,Spanish_step2,2020.2.3,Win32,60,,,,,,,,,,,,,,,,,right,0.473595,1,12,29,16,1,,,,,,,,,
,,,,,,,stim2/pa-30.wav,5f6265b707ccb62ae21f22a2,2021-02-24_16h07.42.440,Spanish_step2,2020.2.3,Win32,60,,,,,,,,,,,,,,,,,right,0.556265,1,13,30,15,1,,,,,,,,,
,,,,,,,stim2/pa+05.wav,5f6265b707ccb62ae21f22a2,2021-02-24_16h07.42.440,Spanish_step2,2020.2.3,Win32,60,,,,,,,,,,,,,,,,,right,0.46118,1,14,31,0,1,,,,,,,,,
,,,,,,,stim2/pa+25.wav,5f6265b707ccb62ae21f22a2,2021-02-24_16h07.42.440,Spanish_step2,2020.2.3,Win32,60,,,,,,,,,,,,,,,,,left,1.3365,1,15,32,4,1,,,,,,,,,
,,,,,,,stim2/pa-15.wav,5f6265b707ccb62ae21f22a2,2021-02-24_16h07.42.440,Spanish_step2,2020.2.3,Win32,60,,,,,,,,,,,,,,,,,right,0.597315,1,16,33,12,1,,,,,,,,,
,,,,,,,stim2/pa+25.wav,5f6265b707ccb62ae21f22a2,2021-02-24_16h07.42.440,Spanish_step2,2020.2.3,Win32,60,,,,,,,,,,,,,,,,,left,0.62651,2,0,34,4,1,,,,,,,,,
,,,,,,,stim2/pa+35.wav,5f6265b707ccb62ae21f22a2,2021-02-24_16h07.42.440,Spanish_step2,2020.2.3,Win32,60,,,,,,,,,,,,,,,,,left,0.67317,2,1,35,6,1,,,,,,,,,
,,,,,,,stim2/pa+45.wav,5f6265b707ccb62ae21f22a2,2021-02-24_16h07.42.440,Spanish_step2,2020.2.3,Win32,60,,,,,,,,,,,,,,,,,left,0.61969,2,2,36,8,1,,,,,,,,,
,,,,,,,stim2/pa-30.wav,5f6265b707ccb62ae21f22a2,2021-02-24_16h07.42.440,Spanish_step2,2020.2.3,Win32,60,,,,,,,,,,,,,,,,,right,0.456125,2,3,37,15,1,,,,,,,,,
,,,,,,,stim2/pa+05.wav,5f6265b707ccb62ae21f22a2,2021-02-24_16h07.42.440,Spanish_step2,2020.2.3,Win32,60,,,,,,,,,,,,,,,,,right,1.18759,2,4,38,0,1,,,,,,,,,
,,,,,,,stim2/pa-15.wav,5f6265b707ccb62ae21f22a2,2021-02-24_16h07.42.440,Spanish_step2,2020.2.3,Win32,60,,,,,,,,,,,,,,,,,right,0.740795,2,5,39,12,1,,,,,,,,,
,,,,,,,stim2/pa+40.wav,5f6265b707ccb62ae21f22a2,2021-02-24_16h07.42.440,Spanish_step2,2020.2.3,Win32,60,,,,,,,,,,,,,,,,,left,0.63384,2,6,40,7,1,,,,,,,,,
,,,,,,,stim2/pa+50.wav,5f6265b707ccb62ae21f22a2,2021-02-24_16h07.42.440,Spanish_step2,2020.2.3,Win32,60,,,,,,,,,,,,,,,,,left,0.701045,2,7,41,9,1,,,,,,,,,
,,,,,,,stim2/pa+10.wav,5f6265b707ccb62ae21f22a2,2021-02-24_16h07.42.440,Spanish_step2,2020.2.3,Win32,60,,,,,,,,,,,,,,,,,left,0.72729,2,8,42,1,1,,,,,,,,,
,,,,,,,stim2/pa-05.wav,5f6265b707ccb62ae21f22a2,2021-02-24_16h07.42.440,Spanish_step2,2020.2.3,Win32,60,,,,,,,,,,,,,,,,,right,0.55054,2,9,43,10,1,,,,,,,,,
,,,,,,,stim2/pa+30.wav,5f6265b707ccb62ae21f22a2,2021-02-24_16h07.42.440,Spanish_step2,2020.2.3,Win32,60,,,,,,,,,,,,,,,,,left,0.738725,2,10,44,5,1,,,,,,,,,
,,,,,,,stim2/pa-35.wav,5f6265b707ccb62ae21f22a2,2021-02-24_16h07.42.440,Spanish_step2,2020.2.3,Win32,60,,,,,,,,,,,,,,,,,right,0.548555,2,11,45,16,1,,,,,,,,,
,,,,,,,stim2/pa-25.wav,5f6265b707ccb62ae21f22a2,2021-02-24_16h07.42.440,Spanish_step2,2020.2.3,Win32,60,,,,,,,,,,,,,,,,,right,0.659195,2,12,46,14,1,,,,,,,,,
,,,,,,,stim2/pa-10.wav,5f6265b707ccb62ae21f22a2,2021-02-24_16h07.42.440,Spanish_step2,2020.2.3,Win32,60,,,,,,,,,,,,,,,,,right,0.637625,2,13,47,11,1,,,,,,,,,
,,,,,,,stim2/pa+15.wav,5f6265b707ccb62ae21f22a2,2021-02-24_16h07.42.440,Spanish_step2,2020.2.3,Win32,60,,,,,,,,,,,,,,,,,left,0.7014,2,14,48,2,1,,,,,,,,,
,,,,,,,stim2/pa-20.wav,5f6265b707ccb62ae21f22a2,2021-02-24_16h07.42.440,Spanish_step2,2020.2.3,Win32,60,,,,,,,,,,,,,,,,,right,0.61156,2,15,49,13,1,,,,,,,,,
,,,,,,,stim2/pa+20.wav,5f6265b707ccb62ae21f22a2,2021-02-24_16h07.42.440,Spanish_step2,2020.2.3,Win32,60,,,,,,,,,,,,,,,,,left,0.612075,2,16,50,3,1,,,,,,,,,
,,,,,,,stim2/pa+25.wav,5f6265b707ccb62ae21f22a2,2021-02-24_16h07.42.440,Spanish_step2,2020.2.3,Win32,60,,,,,,,,,,,,,,,,,left,0.578005,,,,,,z,2.31789,0,0,0,4,1,,
,,,,,,,stim2/pa+20.wav,5f6265b707ccb62ae21f22a2,2021-02-24_16h07.42.440,Spanish_step2,2020.2.3,Win32,60,,,,,,,,,,,,,,,,,left,0.6731,,,,,,,,0,1,1,3,1,,
,,,,,,,stim2/pa+15.wav,5f6265b707ccb62ae21f22a2,2021-02-24_16h07.42.440,Spanish_step2,2020.2.3,Win32,60,,,,,,,,,,,,,,,,,right,0.465265,,,,,,,,0,2,2,2,1,,
,,,,,,,stim2/pa+30.wav,5f6265b707ccb62ae21f22a2,2021-02-24_16h07.42.440,Spanish_step2,2020.2.3,Win32,60,,,,,,,,,,,,,,,,,left,0.6074,,,,,,,,0,3,3,5,1,,
,,,,,,,stim2/pa+40.wav,5f6265b707ccb62ae21f22a2,2021-02-24_16h07.42.440,Spanish_step2,2020.2.3,Win32,60,,,,,,,,,,,,,,,,,right,0.466985,,,,,,,,0,4,4,7,1,,
,,,,,,,stim2/pa-05.wav,5f6265b707ccb62ae21f22a2,2021-02-24_16h07.42.440,Spanish_step2,2020.2.3,Win32,60,,,,,,,,,,,,,,,,,right,0.55541,,,,,,,,0,5,5,10,1,,
,,,,,,,stim2/pa-30.wav,5f6265b707ccb62ae21f22a2,2021-02-24_16h07.42.440,Spanish_step2,2020.2.3,Win32,60,,,,,,,,,,,,,,,,,right,0.591695,,,,,,,,0,6,6,15,1,,
,,,,,,,stim2/pa+50.wav,5f6265b707ccb62ae21f22a2,2021-02-24_16h07.42.440,Spanish_step2,2020.2.3,Win32,60,,,,,,,,,,,,,,,,,left,0.60055,,,,,,,,0,7,7,9,1,,
,,,,,,,stim2/pa+10.wav,5f6265b707ccb62ae21f22a2,2021-02-24_16h07.42.440,Spanish_step2,2020.2.3,Win32,60,,,,,,,,,,,,,,,,,left,0.46966,,,,,,,,0,8,8,1,1,,
,,,,,,,stim2/pa-10.wav,5f6265b707ccb62ae21f22a2,2021-02-24_16h07.42.440,Spanish_step2,2020.2.3,Win32,60,,,,,,,,,,,,,,,,,right,0.62706,,,,,,,,0,9,9,11,1,,
,,,,,,,stim2/pa+45.wav,5f6265b707ccb62ae21f22a2,2021-02-24_16h07.42.440,Spanish_step2,2020.2.3,Win32,60,,,,,,,,,,,,,,,,,left,0.638015,,,,,,,,0,10,10,8,1,,
,,,,,,,stim2/pa+35.wav,5f6265b707ccb62ae21f22a2,2021-02-24_16h07.42.440,Spanish_step2,2020.2.3,Win32,60,,,,,,,,,,,,,,,,,left,0.500375,,,,,,,,0,11,11,6,1,,
,,,,,,,stim2/pa-20.wav,5f6265b707ccb62ae21f22a2,2021-02-24_16h07.42.440,Spanish_step2,2020.2.3,Win32,60,,,,,,,,,,,,,,,,,right,0.458635,,,,,,,,0,12,12,13,1,,
,,,,,,,stim2/pa-35.wav,5f6265b707ccb62ae21f22a2,2021-02-24_16h07.42.440,Spanish_step2,2020.2.3,Win32,60,,,,,,,,,,,,,,,,,left,0.585455,,,,,,,,0,13,13,16,1,,
,,,,,,,stim2/pa-25.wav,5f6265b707ccb62ae21f22a2,2021-02-24_16h07.42.440,Spanish_step2,2020.2.3,Win32,60,,,,,,,,,,,,,,,,,right,1.060545,,,,,,,,0,14,14,14,1,,
,,,,,,,stim2/pa-15.wav,5f6265b707ccb62ae21f22a2,2021-02-24_16h07.42.440,Spanish_step2,2020.2.3,Win32,60,,,,,,,,,,,,,,,,,right,0.87067,,,,,,,,0,15,15,12,1,,
,,,,,,,stim2/pa+05.wav,5f6265b707ccb62ae21f22a2,2021-02-24_16h07.42.440,Spanish_step2,2020.2.3,Win32,60,,,,,,,,,,,,,,,,,left,0.506615,,,,,,,,0,16,16,0,1,,
,,,,,,,stim2/pa+45.wav,5f6265b707ccb62ae21f22a2,2021-02-24_16h07.42.440,Spanish_step2,2020.2.3,Win32,60,,,,,,,,,,,,,,,,,left,0.700775,,,,,,,,1,0,17,8,1,,
,,,,,,,stim2/pa+25.wav,5f6265b707ccb62ae21f22a2,2021-02-24_16h07.42.440,Spanish_step2,2020.2.3,Win32,60,,,,,,,,,,,,,,,,,left,1.51978,,,,,,,,1,1,18,4,1,,
,,,,,,,stim2/pa+15.wav,5f6265b707ccb62ae21f22a2,2021-02-24_16h07.42.440,Spanish_step2,2020.2.3,Win32,60,,,,,,,,,,,,,,,,,left,0.70604,,,,,,,,1,2,19,2,1,,
,,,,,,,stim2/pa-35.wav,5f6265b707ccb62ae21f22a2,2021-02-24_16h07.42.440,Spanish_step2,2020.2.3,Win32,60,,,,,,,,,,,,,,,,,right,0.41129,,,,,,,,1,3,20,16,1,,
,,,,,,,stim2/pa+40.wav,5f6265b707ccb62ae21f22a2,2021-02-24_16h07.42.440,Spanish_step2,2020.2.3,Win32,60,,,,,,,,,,,,,,,,,right,0.958865,,,,,,,,1,4,21,7,1,,
,,,,,,,stim2/pa+35.wav,5f6265b707ccb62ae21f22a2,2021-02-24_16h07.42.440,Spanish_step2,2020.2.3,Win32,60,,,,,,,,,,,,,,,,,right,0.79979,,,,,,,,1,5,22,6,1,,
,,,,,,,stim2/pa+10.wav,5f6265b707ccb62ae21f22a2,2021-02-24_16h07.42.440,Spanish_step2,2020.2.3,Win32,60,,,,,,,,,,,,,,,,,left,0.54786,,,,,,,,1,6,23,1,1,,
,,,,,,,stim2/pa-30.wav,5f6265b707ccb62ae21f22a2,2021-02-24_16h07.42.440,Spanish_step2,2020.2.3,Win32,60,,,,,,,,,,,,,,,,,right,0.623475,,,,,,,,1,7,24,15,1,,
,,,,,,,stim2/pa-25.wav,5f6265b707ccb62ae21f22a2,2021-02-24_16h07.42.440,Spanish_step2,2020.2.3,Win32,60,,,,,,,,,,,,,,,,,right,0.59736,,,,,,,,1,8,25,14,1,,
,,,,,,,stim2/pa+05.wav,5f6265b707ccb62ae21f22a2,2021-02-24_16h07.42.440,Spanish_step2,2020.2.3,Win32,60,,,,,,,,,,,,,,,,,left,0.53405,,,,,,,,1,9,26,0,1,,
,,,,,,,stim2/pa+20.wav,5f6265b707ccb62ae21f22a2,2021-02-24_16h07.42.440,Spanish_step2,2020.2.3,Win32,60,,,,,,,,,,,,,,,,,left,0.669065,,,,,,,,1,10,27,3,1,,
,,,,,,,stim2/pa+50.wav,5f6265b707ccb62ae21f22a2,2021-02-24_16h07.42.440,Spanish_step2,2020.2.3,Win32,60,,,,,,,,,,,,,,,,,right,0.88913,,,,,,,,1,11,28,9,1,,
,,,,,,,stim2/pa-10.wav,5f6265b707ccb62ae21f22a2,2021-02-24_16h07.42.440,Spanish_step2,2020.2.3,Win32,60,,,,,,,,,,,,,,,,,right,0.907215,,,,,,,,1,12,29,11,1,,
,,,,,,,stim2/pa-20.wav,5f6265b707ccb62ae21f22a2,2021-02-24_16h07.42.440,Spanish_step2,2020.2.3,Win32,60,,,,,,,,,,,,,,,,,right,0.640575,,,,,,,,1,13,30,13,1,,
,,,,,,,stim2/pa-15.wav,5f6265b707ccb62ae21f22a2,2021-02-24_16h07.42.440,Spanish_step2,2020.2.3,Win32,60,,,,,,,,,,,,,,,,,right,0.71327,,,,,,,,1,14,31,12,1,,
,,,,,,,stim2/pa-05.wav,5f6265b707ccb62ae21f22a2,2021-02-24_16h07.42.440,Spanish_step2,2020.2.3,Win32,60,,,,,,,,,,,,,,,,,left,0.50549,,,,,,,,1,15,32,10,1,,
,,,,,,,stim2/pa+30.wav,5f6265b707ccb62ae21f22a2,2021-02-24_16h07.42.440,Spanish_step2,2020.2.3,Win32,60,,,,,,,,,,,,,,,,,left,0.72412,,,,,,,,1,16,33,5,1,,
,,,,,,,,5f6265b707ccb62ae21f22a2,2021-02-24_16h07.42.440,Spanish_step2,2020.2.3,Win32,60,,,,,,,,,,,,,,,,,,,,,,,,,,,,,,,space,18.996355
