resp.keys,resp.rt,trials.thisRepN,trials.thisTrialN,trials.thisN,trials.thisIndex,trials.ran,stimuli,participant,date,expName,psychopyVersion,OS,frameRate,gotResponse.keys,gotResponse.rt,resp_2.keys,resp_2.rt,trials_2.thisRepN,trials_2.thisTrialN,trials_2.thisN,trials_2.thisIndex,trials_2.ran,key_resp_3.keys,key_resp_3.rt,trials_4.thisRepN,trials_4.thisTrialN,trials_4.thisN,trials_4.thisIndex,trials_4.ran,resp_3.keys,resp_3.rt,trials_3.thisRepN,trials_3.thisTrialN,trials_3.thisN,trials_3.thisIndex,trials_3.ran,key_resp_2.keys,key_resp_2.rt,trials_5.thisRepN,trials_5.thisTrialN,trials_5.thisN,trials_5.thisIndex,trials_5.ran,key_resp.keys,key_resp.rt
left,1.96335,0,0,0,0,1,stim/VC_01.wav,5fbb445fed317dc4907cfad4,2020-12-17_15h26.43.718,2_afc_fren,2020.2.3,MacIntel,60,,,,,,,,,,,,,,,,,,,,,,,,,,,,,,,,
right,0.463275,0,1,1,1,1,stim/VC_11.wav,5fbb445fed317dc4907cfad4,2020-12-17_15h26.43.718,2_afc_fren,2020.2.3,MacIntel,60,,,,,,,,,,,,,,,,,,,,,,,,,,,,,,,,
,,,,,,,stim/VC_11.wav,5fbb445fed317dc4907cfad4,2020-12-17_15h26.43.718,2_afc_fren,2020.2.3,MacIntel,60,space,1.76674,right,0.699905,0,0,0,10,1,,,,,,,,,,,,,,,,,,,,,,,
,,,,,,,stim/VC_05.wav,5fbb445fed317dc4907cfad4,2020-12-17_15h26.43.718,2_afc_fren,2020.2.3,MacIntel,60,,,right,0.47848,0,1,1,4,1,,,,,,,,,,,,,,,,,,,,,,,
,,,,,,,stim/VC_04.wav,5fbb445fed317dc4907cfad4,2020-12-17_15h26.43.718,2_afc_fren,2020.2.3,MacIntel,60,,,right,0.92848,0,2,2,3,1,,,,,,,,,,,,,,,,,,,,,,,
,,,,,,,stim/VC_08.wav,5fbb445fed317dc4907cfad4,2020-12-17_15h26.43.718,2_afc_fren,2020.2.3,MacIntel,60,,,right,0.580985,0,3,3,7,1,,,,,,,,,,,,,,,,,,,,,,,
,,,,,,,stim/VC_09.wav,5fbb445fed317dc4907cfad4,2020-12-17_15h26.43.718,2_afc_fren,2020.2.3,MacIntel,60,,,right,0.42962,0,4,4,8,1,,,,,,,,,,,,,,,,,,,,,,,
,,,,,,,stim/VC_02.wav,5fbb445fed317dc4907cfad4,2020-12-17_15h26.43.718,2_afc_fren,2020.2.3,MacIntel,60,,,left,0.4809,0,5,5,1,1,,,,,,,,,,,,,,,,,,,,,,,
,,,,,,,stim/VC_03.wav,5fbb445fed317dc4907cfad4,2020-12-17_15h26.43.718,2_afc_fren,2020.2.3,MacIntel,60,,,left,0.450165,0,6,6,2,1,,,,,,,,,,,,,,,,,,,,,,,
,,,,,,,stim/VC_01.wav,5fbb445fed317dc4907cfad4,2020-12-17_15h26.43.718,2_afc_fren,2020.2.3,MacIntel,60,,,left,0.732285,0,7,7,0,1,,,,,,,,,,,,,,,,,,,,,,,
,,,,,,,stim/VC_10.wav,5fbb445fed317dc4907cfad4,2020-12-17_15h26.43.718,2_afc_fren,2020.2.3,MacIntel,60,,,right,0.336115,0,8,8,9,1,,,,,,,,,,,,,,,,,,,,,,,
,,,,,,,stim/VC_06.wav,5fbb445fed317dc4907cfad4,2020-12-17_15h26.43.718,2_afc_fren,2020.2.3,MacIntel,60,,,right,0.48505,0,9,9,5,1,,,,,,,,,,,,,,,,,,,,,,,
,,,,,,,stim/VC_07.wav,5fbb445fed317dc4907cfad4,2020-12-17_15h26.43.718,2_afc_fren,2020.2.3,MacIntel,60,,,right,0.46738,0,10,10,6,1,,,,,,,,,,,,,,,,,,,,,,,
,,,,,,,stim/VC_02.wav,5fbb445fed317dc4907cfad4,2020-12-17_15h26.43.718,2_afc_fren,2020.2.3,MacIntel,60,,,left,0.415415,1,0,11,1,1,,,,,,,,,,,,,,,,,,,,,,,
,,,,,,,stim/VC_11.wav,5fbb445fed317dc4907cfad4,2020-12-17_15h26.43.718,2_afc_fren,2020.2.3,MacIntel,60,,,right,0.400355,1,1,12,10,1,,,,,,,,,,,,,,,,,,,,,,,
,,,,,,,stim/VC_04.wav,5fbb445fed317dc4907cfad4,2020-12-17_15h26.43.718,2_afc_fren,2020.2.3,MacIntel,60,,,right,0.53086,1,2,13,3,1,,,,,,,,,,,,,,,,,,,,,,,
,,,,,,,stim/VC_03.wav,5fbb445fed317dc4907cfad4,2020-12-17_15h26.43.718,2_afc_fren,2020.2.3,MacIntel,60,,,right,0.58332,1,3,14,2,1,,,,,,,,,,,,,,,,,,,,,,,
,,,,,,,stim/VC_09.wav,5fbb445fed317dc4907cfad4,2020-12-17_15h26.43.718,2_afc_fren,2020.2.3,MacIntel,60,,,right,0.636435,1,4,15,8,1,,,,,,,,,,,,,,,,,,,,,,,
,,,,,,,stim/VC_08.wav,5fbb445fed317dc4907cfad4,2020-12-17_15h26.43.718,2_afc_fren,2020.2.3,MacIntel,60,,,right,0.532175,1,5,16,7,1,,,,,,,,,,,,,,,,,,,,,,,
,,,,,,,stim/VC_01.wav,5fbb445fed317dc4907cfad4,2020-12-17_15h26.43.718,2_afc_fren,2020.2.3,MacIntel,60,,,left,0.53282,1,6,17,0,1,,,,,,,,,,,,,,,,,,,,,,,
,,,,,,,stim/VC_07.wav,5fbb445fed317dc4907cfad4,2020-12-17_15h26.43.718,2_afc_fren,2020.2.3,MacIntel,60,,,right,0.415575,1,7,18,6,1,,,,,,,,,,,,,,,,,,,,,,,
,,,,,,,stim/VC_06.wav,5fbb445fed317dc4907cfad4,2020-12-17_15h26.43.718,2_afc_fren,2020.2.3,MacIntel,60,,,right,0.50185,1,8,19,5,1,,,,,,,,,,,,,,,,,,,,,,,
,,,,,,,stim/VC_05.wav,5fbb445fed317dc4907cfad4,2020-12-17_15h26.43.718,2_afc_fren,2020.2.3,MacIntel,60,,,right,0.433695,1,9,20,4,1,,,,,,,,,,,,,,,,,,,,,,,
,,,,,,,stim/VC_10.wav,5fbb445fed317dc4907cfad4,2020-12-17_15h26.43.718,2_afc_fren,2020.2.3,MacIntel,60,,,right,0.53373,1,10,21,9,1,,,,,,,,,,,,,,,,,,,,,,,
,,,,,,,stim/VC_02.wav,5fbb445fed317dc4907cfad4,2020-12-17_15h26.43.718,2_afc_fren,2020.2.3,MacIntel,60,,,left,0.48214,2,0,22,1,1,,,,,,,,,,,,,,,,,,,,,,,
,,,,,,,stim/VC_11.wav,5fbb445fed317dc4907cfad4,2020-12-17_15h26.43.718,2_afc_fren,2020.2.3,MacIntel,60,,,right,0.366575,2,1,23,10,1,,,,,,,,,,,,,,,,,,,,,,,
,,,,,,,stim/VC_08.wav,5fbb445fed317dc4907cfad4,2020-12-17_15h26.43.718,2_afc_fren,2020.2.3,MacIntel,60,,,right,0.41368,2,2,24,7,1,,,,,,,,,,,,,,,,,,,,,,,
,,,,,,,stim/VC_06.wav,5fbb445fed317dc4907cfad4,2020-12-17_15h26.43.718,2_afc_fren,2020.2.3,MacIntel,60,,,right,0.26758,2,3,25,5,1,,,,,,,,,,,,,,,,,,,,,,,
,,,,,,,stim/VC_10.wav,5fbb445fed317dc4907cfad4,2020-12-17_15h26.43.718,2_afc_fren,2020.2.3,MacIntel,60,,,right,0.28225,2,4,26,9,1,,,,,,,,,,,,,,,,,,,,,,,
,,,,,,,stim/VC_04.wav,5fbb445fed317dc4907cfad4,2020-12-17_15h26.43.718,2_afc_fren,2020.2.3,MacIntel,60,,,right,0.450035,2,5,27,3,1,,,,,,,,,,,,,,,,,,,,,,,
,,,,,,,stim/VC_07.wav,5fbb445fed317dc4907cfad4,2020-12-17_15h26.43.718,2_afc_fren,2020.2.3,MacIntel,60,,,right,0.399785,2,6,28,6,1,,,,,,,,,,,,,,,,,,,,,,,
,,,,,,,stim/VC_01.wav,5fbb445fed317dc4907cfad4,2020-12-17_15h26.43.718,2_afc_fren,2020.2.3,MacIntel,60,,,left,0.40007,2,7,29,0,1,,,,,,,,,,,,,,,,,,,,,,,
,,,,,,,stim/VC_05.wav,5fbb445fed317dc4907cfad4,2020-12-17_15h26.43.718,2_afc_fren,2020.2.3,MacIntel,60,,,right,0.389885,2,8,30,4,1,,,,,,,,,,,,,,,,,,,,,,,
,,,,,,,stim/VC_03.wav,5fbb445fed317dc4907cfad4,2020-12-17_15h26.43.718,2_afc_fren,2020.2.3,MacIntel,60,,,right,0.596125,2,9,31,2,1,,,,,,,,,,,,,,,,,,,,,,,
,,,,,,,stim/VC_09.wav,5fbb445fed317dc4907cfad4,2020-12-17_15h26.43.718,2_afc_fren,2020.2.3,MacIntel,60,,,left,0.39871,2,10,32,8,1,,,,,,,,,,,,,,,,,,,,,,,
,,,,,,,stim/VC_04.wav,5fbb445fed317dc4907cfad4,2020-12-17_15h26.43.718,2_afc_fren,2020.2.3,MacIntel,60,,,right,0.548835,,,,,,7,1.764035,0,0,0,3,1,,,,,,,,,,,,,,,,
,,,,,,,stim/VC_09.wav,5fbb445fed317dc4907cfad4,2020-12-17_15h26.43.718,2_afc_fren,2020.2.3,MacIntel,60,,,right,0.41513,,,,,,,,0,1,1,8,1,,,,,,,,,,,,,,,,
,,,,,,,stim/VC_01.wav,5fbb445fed317dc4907cfad4,2020-12-17_15h26.43.718,2_afc_fren,2020.2.3,MacIntel,60,,,left,0.45826,,,,,,,,0,2,2,0,1,,,,,,,,,,,,,,,,
,,,,,,,stim/VC_03.wav,5fbb445fed317dc4907cfad4,2020-12-17_15h26.43.718,2_afc_fren,2020.2.3,MacIntel,60,,,left,0.74922,,,,,,,,0,3,3,2,1,,,,,,,,,,,,,,,,
,,,,,,,stim/VC_11.wav,5fbb445fed317dc4907cfad4,2020-12-17_15h26.43.718,2_afc_fren,2020.2.3,MacIntel,60,,,right,0.76637,,,,,,,,0,4,4,10,1,,,,,,,,,,,,,,,,
,,,,,,,stim/VC_05.wav,5fbb445fed317dc4907cfad4,2020-12-17_15h26.43.718,2_afc_fren,2020.2.3,MacIntel,60,,,right,0.51596,,,,,,,,0,5,5,4,1,,,,,,,,,,,,,,,,
,,,,,,,stim/VC_10.wav,5fbb445fed317dc4907cfad4,2020-12-17_15h26.43.718,2_afc_fren,2020.2.3,MacIntel,60,,,right,0.4404,,,,,,,,0,6,6,9,1,,,,,,,,,,,,,,,,
,,,,,,,stim/VC_02.wav,5fbb445fed317dc4907cfad4,2020-12-17_15h26.43.718,2_afc_fren,2020.2.3,MacIntel,60,,,left,0.66618,,,,,,,,0,7,7,1,1,,,,,,,,,,,,,,,,
,,,,,,,stim/VC_06.wav,5fbb445fed317dc4907cfad4,2020-12-17_15h26.43.718,2_afc_fren,2020.2.3,MacIntel,60,,,right,0.418725,,,,,,,,0,8,8,5,1,,,,,,,,,,,,,,,,
,,,,,,,stim/VC_08.wav,5fbb445fed317dc4907cfad4,2020-12-17_15h26.43.718,2_afc_fren,2020.2.3,MacIntel,60,,,right,0.38533,,,,,,,,0,9,9,7,1,,,,,,,,,,,,,,,,
,,,,,,,stim/VC_07.wav,5fbb445fed317dc4907cfad4,2020-12-17_15h26.43.718,2_afc_fren,2020.2.3,MacIntel,60,,,right,0.45004,,,,,,,,0,10,10,6,1,,,,,,,,,,,,,,,,
,,,,,,,stim/VC_04.wav,5fbb445fed317dc4907cfad4,2020-12-17_15h26.43.718,2_afc_fren,2020.2.3,MacIntel,60,,,right,0.450075,,,,,,,,1,0,11,3,1,,,,,,,,,,,,,,,,
,,,,,,,stim/VC_08.wav,5fbb445fed317dc4907cfad4,2020-12-17_15h26.43.718,2_afc_fren,2020.2.3,MacIntel,60,,,right,0.41578,,,,,,,,1,1,12,7,1,,,,,,,,,,,,,,,,
,,,,,,,stim/VC_11.wav,5fbb445fed317dc4907cfad4,2020-12-17_15h26.43.718,2_afc_fren,2020.2.3,MacIntel,60,,,right,0.48117,,,,,,,,1,2,13,10,1,,,,,,,,,,,,,,,,
,,,,,,,stim/VC_09.wav,5fbb445fed317dc4907cfad4,2020-12-17_15h26.43.718,2_afc_fren,2020.2.3,MacIntel,60,,,right,0.357805,,,,,,,,1,3,14,8,1,,,,,,,,,,,,,,,,
,,,,,,,stim/VC_03.wav,5fbb445fed317dc4907cfad4,2020-12-17_15h26.43.718,2_afc_fren,2020.2.3,MacIntel,60,,,right,0.5146,,,,,,,,1,4,15,2,1,,,,,,,,,,,,,,,,
,,,,,,,stim/VC_05.wav,5fbb445fed317dc4907cfad4,2020-12-17_15h26.43.718,2_afc_fren,2020.2.3,MacIntel,60,,,right,0.52523,,,,,,,,1,5,16,4,1,,,,,,,,,,,,,,,,
,,,,,,,stim/VC_01.wav,5fbb445fed317dc4907cfad4,2020-12-17_15h26.43.718,2_afc_fren,2020.2.3,MacIntel,60,,,left,0.49737,,,,,,,,1,6,17,0,1,,,,,,,,,,,,,,,,
,,,,,,,stim/VC_06.wav,5fbb445fed317dc4907cfad4,2020-12-17_15h26.43.718,2_afc_fren,2020.2.3,MacIntel,60,,,right,0.767245,,,,,,,,1,7,18,5,1,,,,,,,,,,,,,,,,
,,,,,,,stim/VC_07.wav,5fbb445fed317dc4907cfad4,2020-12-17_15h26.43.718,2_afc_fren,2020.2.3,MacIntel,60,,,right,0.45809,,,,,,,,1,8,19,6,1,,,,,,,,,,,,,,,,
,,,,,,,stim/VC_02.wav,5fbb445fed317dc4907cfad4,2020-12-17_15h26.43.718,2_afc_fren,2020.2.3,MacIntel,60,,,left,0.467565,,,,,,,,1,9,20,1,1,,,,,,,,,,,,,,,,
,,,,,,,stim/VC_10.wav,5fbb445fed317dc4907cfad4,2020-12-17_15h26.43.718,2_afc_fren,2020.2.3,MacIntel,60,,,right,0.41594,,,,,,,,1,10,21,9,1,,,,,,,,,,,,,,,,
,,,,,,,stim2/pa+45.wav,5fbb445fed317dc4907cfad4,2020-12-17_15h26.43.718,2_afc_fren,2020.2.3,MacIntel,60,,,,,,,,,,,,,,,,,right,1.163,0,0,0,8,1,,,,,,,,,
,,,,,,,stim2/pa+35.wav,5fbb445fed317dc4907cfad4,2020-12-17_15h26.43.718,2_afc_fren,2020.2.3,MacIntel,60,,,,,,,,,,,,,,,,,left,0.5866,0,1,1,6,1,,,,,,,,,
,,,,,,,stim2/pa+15.wav,5fbb445fed317dc4907cfad4,2020-12-17_15h26.43.718,2_afc_fren,2020.2.3,MacIntel,60,,,,,,,,,,,,,,,,,right,0.498825,0,2,2,2,1,,,,,,,,,
,,,,,,,stim2/pa+30.wav,5fbb445fed317dc4907cfad4,2020-12-17_15h26.43.718,2_afc_fren,2020.2.3,MacIntel,60,,,,,,,,,,,,,,,,,left,0.48278,0,3,3,5,1,,,,,,,,,
,,,,,,,stim2/pa+40.wav,5fbb445fed317dc4907cfad4,2020-12-17_15h26.43.718,2_afc_fren,2020.2.3,MacIntel,60,,,,,,,,,,,,,,,,,left,0.916285,0,4,4,7,1,,,,,,,,,
,,,,,,,stim2/pa-30.wav,5fbb445fed317dc4907cfad4,2020-12-17_15h26.43.718,2_afc_fren,2020.2.3,MacIntel,60,,,,,,,,,,,,,,,,,left,0.644045,0,5,5,15,1,,,,,,,,,
,,,,,,,stim2/pa-20.wav,5fbb445fed317dc4907cfad4,2020-12-17_15h26.43.718,2_afc_fren,2020.2.3,MacIntel,60,,,,,,,,,,,,,,,,,right,0.61826,0,6,6,13,1,,,,,,,,,
,,,,,,,stim2/pa-35.wav,5fbb445fed317dc4907cfad4,2020-12-17_15h26.43.718,2_afc_fren,2020.2.3,MacIntel,60,,,,,,,,,,,,,,,,,right,0.60199,0,7,7,16,1,,,,,,,,,
,,,,,,,stim2/pa+05.wav,5fbb445fed317dc4907cfad4,2020-12-17_15h26.43.718,2_afc_fren,2020.2.3,MacIntel,60,,,,,,,,,,,,,,,,,right,0.502575,0,8,8,0,1,,,,,,,,,
,,,,,,,stim2/pa+10.wav,5fbb445fed317dc4907cfad4,2020-12-17_15h26.43.718,2_afc_fren,2020.2.3,MacIntel,60,,,,,,,,,,,,,,,,,left,1.626835,0,9,9,1,1,,,,,,,,,
,,,,,,,stim2/pa-05.wav,5fbb445fed317dc4907cfad4,2020-12-17_15h26.43.718,2_afc_fren,2020.2.3,MacIntel,60,,,,,,,,,,,,,,,,,right,1.007645,0,10,10,10,1,,,,,,,,,
,,,,,,,stim2/pa+50.wav,5fbb445fed317dc4907cfad4,2020-12-17_15h26.43.718,2_afc_fren,2020.2.3,MacIntel,60,,,,,,,,,,,,,,,,,left,2.335255,0,11,11,9,1,,,,,,,,,
,,,,,,,stim2/pa-25.wav,5fbb445fed317dc4907cfad4,2020-12-17_15h26.43.718,2_afc_fren,2020.2.3,MacIntel,60,,,,,,,,,,,,,,,,,right,0.44368,0,12,12,14,1,,,,,,,,,
,,,,,,,stim2/pa+25.wav,5fbb445fed317dc4907cfad4,2020-12-17_15h26.43.718,2_afc_fren,2020.2.3,MacIntel,60,,,,,,,,,,,,,,,,,right,0.469165,0,13,13,4,1,,,,,,,,,
,,,,,,,stim2/pa-15.wav,5fbb445fed317dc4907cfad4,2020-12-17_15h26.43.718,2_afc_fren,2020.2.3,MacIntel,60,,,,,,,,,,,,,,,,,right,0.367605,0,14,14,12,1,,,,,,,,,
,,,,,,,stim2/pa-10.wav,5fbb445fed317dc4907cfad4,2020-12-17_15h26.43.718,2_afc_fren,2020.2.3,MacIntel,60,,,,,,,,,,,,,,,,,right,0.43516,0,15,15,11,1,,,,,,,,,
,,,,,,,stim2/pa+20.wav,5fbb445fed317dc4907cfad4,2020-12-17_15h26.43.718,2_afc_fren,2020.2.3,MacIntel,60,,,,,,,,,,,,,,,,,left,0.550475,0,16,16,3,1,,,,,,,,,
,,,,,,,stim2/pa-20.wav,5fbb445fed317dc4907cfad4,2020-12-17_15h26.43.718,2_afc_fren,2020.2.3,MacIntel,60,,,,,,,,,,,,,,,,,right,0.43167,1,0,17,13,1,,,,,,,,,
,,,,,,,stim2/pa-30.wav,5fbb445fed317dc4907cfad4,2020-12-17_15h26.43.718,2_afc_fren,2020.2.3,MacIntel,60,,,,,,,,,,,,,,,,,right,0.400035,1,1,18,15,1,,,,,,,,,
,,,,,,,stim2/pa+35.wav,5fbb445fed317dc4907cfad4,2020-12-17_15h26.43.718,2_afc_fren,2020.2.3,MacIntel,60,,,,,,,,,,,,,,,,,left,0.432955,1,2,19,6,1,,,,,,,,,
,,,,,,,stim2/pa+05.wav,5fbb445fed317dc4907cfad4,2020-12-17_15h26.43.718,2_afc_fren,2020.2.3,MacIntel,60,,,,,,,,,,,,,,,,,right,0.348605,1,3,20,0,1,,,,,,,,,
,,,,,,,stim2/pa-15.wav,5fbb445fed317dc4907cfad4,2020-12-17_15h26.43.718,2_afc_fren,2020.2.3,MacIntel,60,,,,,,,,,,,,,,,,,right,0.41943,1,4,21,12,1,,,,,,,,,
,,,,,,,stim2/pa-05.wav,5fbb445fed317dc4907cfad4,2020-12-17_15h26.43.718,2_afc_fren,2020.2.3,MacIntel,60,,,,,,,,,,,,,,,,,right,0.38543,1,5,22,10,1,,,,,,,,,
,,,,,,,stim2/pa+40.wav,5fbb445fed317dc4907cfad4,2020-12-17_15h26.43.718,2_afc_fren,2020.2.3,MacIntel,60,,,,,,,,,,,,,,,,,left,0.379775,1,6,23,7,1,,,,,,,,,
,,,,,,,stim2/pa+50.wav,5fbb445fed317dc4907cfad4,2020-12-17_15h26.43.718,2_afc_fren,2020.2.3,MacIntel,60,,,,,,,,,,,,,,,,,left,0.617665,1,7,24,9,1,,,,,,,,,
,,,,,,,stim2/pa-10.wav,5fbb445fed317dc4907cfad4,2020-12-17_15h26.43.718,2_afc_fren,2020.2.3,MacIntel,60,,,,,,,,,,,,,,,,,right,0.33325,1,8,25,11,1,,,,,,,,,
,,,,,,,stim2/pa-35.wav,5fbb445fed317dc4907cfad4,2020-12-17_15h26.43.718,2_afc_fren,2020.2.3,MacIntel,60,,,,,,,,,,,,,,,,,right,0.515655,1,9,26,16,1,,,,,,,,,
,,,,,,,stim2/pa+20.wav,5fbb445fed317dc4907cfad4,2020-12-17_15h26.43.718,2_afc_fren,2020.2.3,MacIntel,60,,,,,,,,,,,,,,,,,left,0.360685,1,10,27,3,1,,,,,,,,,
,,,,,,,stim2/pa+30.wav,5fbb445fed317dc4907cfad4,2020-12-17_15h26.43.718,2_afc_fren,2020.2.3,MacIntel,60,,,,,,,,,,,,,,,,,left,0.91506,1,11,28,5,1,,,,,,,,,
,,,,,,,stim2/pa+10.wav,5fbb445fed317dc4907cfad4,2020-12-17_15h26.43.718,2_afc_fren,2020.2.3,MacIntel,60,,,,,,,,,,,,,,,,,right,0.56714,1,12,29,1,1,,,,,,,,,
,,,,,,,stim2/pa+15.wav,5fbb445fed317dc4907cfad4,2020-12-17_15h26.43.718,2_afc_fren,2020.2.3,MacIntel,60,,,,,,,,,,,,,,,,,left,0.51786,1,13,30,2,1,,,,,,,,,
,,,,,,,stim2/pa-25.wav,5fbb445fed317dc4907cfad4,2020-12-17_15h26.43.718,2_afc_fren,2020.2.3,MacIntel,60,,,,,,,,,,,,,,,,,right,0.90904,1,14,31,14,1,,,,,,,,,
,,,,,,,stim2/pa+45.wav,5fbb445fed317dc4907cfad4,2020-12-17_15h26.43.718,2_afc_fren,2020.2.3,MacIntel,60,,,,,,,,,,,,,,,,,left,0.649675,1,15,32,8,1,,,,,,,,,
,,,,,,,stim2/pa+25.wav,5fbb445fed317dc4907cfad4,2020-12-17_15h26.43.718,2_afc_fren,2020.2.3,MacIntel,60,,,,,,,,,,,,,,,,,right,0.582175,1,16,33,4,1,,,,,,,,,
,,,,,,,stim2/pa-35.wav,5fbb445fed317dc4907cfad4,2020-12-17_15h26.43.718,2_afc_fren,2020.2.3,MacIntel,60,,,,,,,,,,,,,,,,,right,0.517595,2,0,34,16,1,,,,,,,,,
,,,,,,,stim2/pa-30.wav,5fbb445fed317dc4907cfad4,2020-12-17_15h26.43.718,2_afc_fren,2020.2.3,MacIntel,60,,,,,,,,,,,,,,,,,right,0.499485,2,1,35,15,1,,,,,,,,,
,,,,,,,stim2/pa-10.wav,5fbb445fed317dc4907cfad4,2020-12-17_15h26.43.718,2_afc_fren,2020.2.3,MacIntel,60,,,,,,,,,,,,,,,,,right,0.399605,2,2,36,11,1,,,,,,,,,
,,,,,,,stim2/pa+20.wav,5fbb445fed317dc4907cfad4,2020-12-17_15h26.43.718,2_afc_fren,2020.2.3,MacIntel,60,,,,,,,,,,,,,,,,,left,0.65003,2,3,37,3,1,,,,,,,,,
,,,,,,,stim2/pa-25.wav,5fbb445fed317dc4907cfad4,2020-12-17_15h26.43.718,2_afc_fren,2020.2.3,MacIntel,60,,,,,,,,,,,,,,,,,right,3.32429,2,4,38,14,1,,,,,,,,,
,,,,,,,stim2/pa-15.wav,5fbb445fed317dc4907cfad4,2020-12-17_15h26.43.718,2_afc_fren,2020.2.3,MacIntel,60,,,,,,,,,,,,,,,,,right,0.52461,2,5,39,12,1,,,,,,,,,
,,,,,,,stim2/pa+30.wav,5fbb445fed317dc4907cfad4,2020-12-17_15h26.43.718,2_afc_fren,2020.2.3,MacIntel,60,,,,,,,,,,,,,,,,,left,0.816075,2,6,40,5,1,,,,,,,,,
,,,,,,,stim2/pa+45.wav,5fbb445fed317dc4907cfad4,2020-12-17_15h26.43.718,2_afc_fren,2020.2.3,MacIntel,60,,,,,,,,,,,,,,,,,left,0.499245,2,7,41,8,1,,,,,,,,,
,,,,,,,stim2/pa+40.wav,5fbb445fed317dc4907cfad4,2020-12-17_15h26.43.718,2_afc_fren,2020.2.3,MacIntel,60,,,,,,,,,,,,,,,,,left,0.465285,2,8,42,7,1,,,,,,,,,
,,,,,,,stim2/pa+15.wav,5fbb445fed317dc4907cfad4,2020-12-17_15h26.43.718,2_afc_fren,2020.2.3,MacIntel,60,,,,,,,,,,,,,,,,,right,0.49685,2,9,43,2,1,,,,,,,,,
,,,,,,,stim2/pa+10.wav,5fbb445fed317dc4907cfad4,2020-12-17_15h26.43.718,2_afc_fren,2020.2.3,MacIntel,60,,,,,,,,,,,,,,,,,left,0.332515,2,10,44,1,1,,,,,,,,,
,,,,,,,stim2/pa+35.wav,5fbb445fed317dc4907cfad4,2020-12-17_15h26.43.718,2_afc_fren,2020.2.3,MacIntel,60,,,,,,,,,,,,,,,,,left,0.46854,2,11,45,6,1,,,,,,,,,
,,,,,,,stim2/pa+05.wav,5fbb445fed317dc4907cfad4,2020-12-17_15h26.43.718,2_afc_fren,2020.2.3,MacIntel,60,,,,,,,,,,,,,,,,,left,0.6949,2,12,46,0,1,,,,,,,,,
,,,,,,,stim2/pa+25.wav,5fbb445fed317dc4907cfad4,2020-12-17_15h26.43.718,2_afc_fren,2020.2.3,MacIntel,60,,,,,,,,,,,,,,,,,left,0.48134,2,13,47,4,1,,,,,,,,,
,,,,,,,stim2/pa-20.wav,5fbb445fed317dc4907cfad4,2020-12-17_15h26.43.718,2_afc_fren,2020.2.3,MacIntel,60,,,,,,,,,,,,,,,,,right,0.565615,2,14,48,13,1,,,,,,,,,
,,,,,,,stim2/pa+50.wav,5fbb445fed317dc4907cfad4,2020-12-17_15h26.43.718,2_afc_fren,2020.2.3,MacIntel,60,,,,,,,,,,,,,,,,,left,0.44854,2,15,49,9,1,,,,,,,,,
,,,,,,,stim2/pa-05.wav,5fbb445fed317dc4907cfad4,2020-12-17_15h26.43.718,2_afc_fren,2020.2.3,MacIntel,60,,,,,,,,,,,,,,,,,right,0.43492,2,16,50,10,1,,,,,,,,,
,,,,,,,stim2/pa-20.wav,5fbb445fed317dc4907cfad4,2020-12-17_15h26.43.718,2_afc_fren,2020.2.3,MacIntel,60,,,,,,,,,,,,,,,,,right,2.970235,,,,,,z,1.681185,0,0,0,13,1,,
,,,,,,,stim2/pa+50.wav,5fbb445fed317dc4907cfad4,2020-12-17_15h26.43.718,2_afc_fren,2020.2.3,MacIntel,60,,,,,,,,,,,,,,,,,left,0.449295,,,,,,,,0,1,1,9,1,,
,,,,,,,stim2/pa+25.wav,5fbb445fed317dc4907cfad4,2020-12-17_15h26.43.718,2_afc_fren,2020.2.3,MacIntel,60,,,,,,,,,,,,,,,,,left,0.631405,,,,,,,,0,2,2,4,1,,
,,,,,,,stim2/pa+10.wav,5fbb445fed317dc4907cfad4,2020-12-17_15h26.43.718,2_afc_fren,2020.2.3,MacIntel,60,,,,,,,,,,,,,,,,,right,0.715785,,,,,,,,0,3,3,1,1,,
,,,,,,,stim2/pa-10.wav,5fbb445fed317dc4907cfad4,2020-12-17_15h26.43.718,2_afc_fren,2020.2.3,MacIntel,60,,,,,,,,,,,,,,,,,left,0.35673,,,,,,,,0,4,4,11,1,,
,,,,,,,stim2/pa+30.wav,5fbb445fed317dc4907cfad4,2020-12-17_15h26.43.718,2_afc_fren,2020.2.3,MacIntel,60,,,,,,,,,,,,,,,,,left,0.633275,,,,,,,,0,5,5,5,1,,
,,,,,,,stim2/pa-15.wav,5fbb445fed317dc4907cfad4,2020-12-17_15h26.43.718,2_afc_fren,2020.2.3,MacIntel,60,,,,,,,,,,,,,,,,,right,0.46536,,,,,,,,0,6,6,12,1,,
,,,,,,,stim2/pa+20.wav,5fbb445fed317dc4907cfad4,2020-12-17_15h26.43.718,2_afc_fren,2020.2.3,MacIntel,60,,,,,,,,,,,,,,,,,left,0.5154,,,,,,,,0,7,7,3,1,,
,,,,,,,stim2/pa+35.wav,5fbb445fed317dc4907cfad4,2020-12-17_15h26.43.718,2_afc_fren,2020.2.3,MacIntel,60,,,,,,,,,,,,,,,,,left,0.592445,,,,,,,,0,8,8,6,1,,
,,,,,,,stim2/pa+05.wav,5fbb445fed317dc4907cfad4,2020-12-17_15h26.43.718,2_afc_fren,2020.2.3,MacIntel,60,,,,,,,,,,,,,,,,,right,0.418425,,,,,,,,0,9,9,0,1,,
,,,,,,,stim2/pa-25.wav,5fbb445fed317dc4907cfad4,2020-12-17_15h26.43.718,2_afc_fren,2020.2.3,MacIntel,60,,,,,,,,,,,,,,,,,right,0.41821,,,,,,,,0,10,10,14,1,,
,,,,,,,stim2/pa+45.wav,5fbb445fed317dc4907cfad4,2020-12-17_15h26.43.718,2_afc_fren,2020.2.3,MacIntel,60,,,,,,,,,,,,,,,,,left,0.467985,,,,,,,,0,11,11,8,1,,
,,,,,,,stim2/pa-05.wav,5fbb445fed317dc4907cfad4,2020-12-17_15h26.43.718,2_afc_fren,2020.2.3,MacIntel,60,,,,,,,,,,,,,,,,,right,0.53343,,,,,,,,0,12,12,10,1,,
,,,,,,,stim2/pa-35.wav,5fbb445fed317dc4907cfad4,2020-12-17_15h26.43.718,2_afc_fren,2020.2.3,MacIntel,60,,,,,,,,,,,,,,,,,right,0.43308,,,,,,,,0,13,13,16,1,,
,,,,,,,stim2/pa-30.wav,5fbb445fed317dc4907cfad4,2020-12-17_15h26.43.718,2_afc_fren,2020.2.3,MacIntel,60,,,,,,,,,,,,,,,,,right,0.400005,,,,,,,,0,14,14,15,1,,
,,,,,,,stim2/pa+15.wav,5fbb445fed317dc4907cfad4,2020-12-17_15h26.43.718,2_afc_fren,2020.2.3,MacIntel,60,,,,,,,,,,,,,,,,,left,0.41726,,,,,,,,0,15,15,2,1,,
,,,,,,,stim2/pa+40.wav,5fbb445fed317dc4907cfad4,2020-12-17_15h26.43.718,2_afc_fren,2020.2.3,MacIntel,60,,,,,,,,,,,,,,,,,left,0.521285,,,,,,,,0,16,16,7,1,,
,,,,,,,stim2/pa-10.wav,5fbb445fed317dc4907cfad4,2020-12-17_15h26.43.718,2_afc_fren,2020.2.3,MacIntel,60,,,,,,,,,,,,,,,,,right,0.365005,,,,,,,,1,0,17,11,1,,
,,,,,,,stim2/pa+05.wav,5fbb445fed317dc4907cfad4,2020-12-17_15h26.43.718,2_afc_fren,2020.2.3,MacIntel,60,,,,,,,,,,,,,,,,,right,0.415675,,,,,,,,1,1,18,0,1,,
,,,,,,,stim2/pa+45.wav,5fbb445fed317dc4907cfad4,2020-12-17_15h26.43.718,2_afc_fren,2020.2.3,MacIntel,60,,,,,,,,,,,,,,,,,left,0.349285,,,,,,,,1,2,19,8,1,,
,,,,,,,stim2/pa-15.wav,5fbb445fed317dc4907cfad4,2020-12-17_15h26.43.718,2_afc_fren,2020.2.3,MacIntel,60,,,,,,,,,,,,,,,,,right,0.49592,,,,,,,,1,3,20,12,1,,
,,,,,,,stim2/pa-30.wav,5fbb445fed317dc4907cfad4,2020-12-17_15h26.43.718,2_afc_fren,2020.2.3,MacIntel,60,,,,,,,,,,,,,,,,,right,0.550315,,,,,,,,1,4,21,15,1,,
,,,,,,,stim2/pa+50.wav,5fbb445fed317dc4907cfad4,2020-12-17_15h26.43.718,2_afc_fren,2020.2.3,MacIntel,60,,,,,,,,,,,,,,,,,left,0.398965,,,,,,,,1,5,22,9,1,,
,,,,,,,stim2/pa+35.wav,5fbb445fed317dc4907cfad4,2020-12-17_15h26.43.718,2_afc_fren,2020.2.3,MacIntel,60,,,,,,,,,,,,,,,,,left,0.734825,,,,,,,,1,6,23,6,1,,
,,,,,,,stim2/pa+20.wav,5fbb445fed317dc4907cfad4,2020-12-17_15h26.43.718,2_afc_fren,2020.2.3,MacIntel,60,,,,,,,,,,,,,,,,,left,0.451365,,,,,,,,1,7,24,3,1,,
,,,,,,,stim2/pa+10.wav,5fbb445fed317dc4907cfad4,2020-12-17_15h26.43.718,2_afc_fren,2020.2.3,MacIntel,60,,,,,,,,,,,,,,,,,left,0.366295,,,,,,,,1,8,25,1,1,,
,,,,,,,stim2/pa+40.wav,5fbb445fed317dc4907cfad4,2020-12-17_15h26.43.718,2_afc_fren,2020.2.3,MacIntel,60,,,,,,,,,,,,,,,,,left,0.55079,,,,,,,,1,9,26,7,1,,
,,,,,,,stim2/pa+15.wav,5fbb445fed317dc4907cfad4,2020-12-17_15h26.43.718,2_afc_fren,2020.2.3,MacIntel,60,,,,,,,,,,,,,,,,,left,0.442705,,,,,,,,1,10,27,2,1,,
,,,,,,,stim2/pa+30.wav,5fbb445fed317dc4907cfad4,2020-12-17_15h26.43.718,2_afc_fren,2020.2.3,MacIntel,60,,,,,,,,,,,,,,,,,left,0.43177,,,,,,,,1,11,28,5,1,,
,,,,,,,stim2/pa-05.wav,5fbb445fed317dc4907cfad4,2020-12-17_15h26.43.718,2_afc_fren,2020.2.3,MacIntel,60,,,,,,,,,,,,,,,,,right,0.45001,,,,,,,,1,12,29,10,1,,
,,,,,,,stim2/pa-35.wav,5fbb445fed317dc4907cfad4,2020-12-17_15h26.43.718,2_afc_fren,2020.2.3,MacIntel,60,,,,,,,,,,,,,,,,,right,0.43169,,,,,,,,1,13,30,16,1,,
,,,,,,,stim2/pa+25.wav,5fbb445fed317dc4907cfad4,2020-12-17_15h26.43.718,2_afc_fren,2020.2.3,MacIntel,60,,,,,,,,,,,,,,,,,left,0.482235,,,,,,,,1,14,31,4,1,,
,,,,,,,stim2/pa-25.wav,5fbb445fed317dc4907cfad4,2020-12-17_15h26.43.718,2_afc_fren,2020.2.3,MacIntel,60,,,,,,,,,,,,,,,,,right,0.4502,,,,,,,,1,15,32,14,1,,
,,,,,,,stim2/pa-20.wav,5fbb445fed317dc4907cfad4,2020-12-17_15h26.43.718,2_afc_fren,2020.2.3,MacIntel,60,,,,,,,,,,,,,,,,,right,0.46508,,,,,,,,1,16,33,13,1,,
,,,,,,,,5fbb445fed317dc4907cfad4,2020-12-17_15h26.43.718,2_afc_fren,2020.2.3,MacIntel,60,,,,,,,,,,,,,,,,,,,,,,,,,,,,,,,space,16.330665
