resp.keys,resp.rt,trials.thisRepN,trials.thisTrialN,trials.thisN,trials.thisIndex,trials.ran,stimuli,participant,date,expName,psychopyVersion,OS,frameRate,gotResponse.keys,gotResponse.rt,resp_2.keys,resp_2.rt,trials_2.thisRepN,trials_2.thisTrialN,trials_2.thisN,trials_2.thisIndex,trials_2.ran,key_resp_3.keys,key_resp_3.rt,trials_4.thisRepN,trials_4.thisTrialN,trials_4.thisN,trials_4.thisIndex,trials_4.ran,resp_3.keys,resp_3.rt,trials_3.thisRepN,trials_3.thisTrialN,trials_3.thisN,trials_3.thisIndex,trials_3.ran,key_resp_2.keys,key_resp_2.rt,trials_5.thisRepN,trials_5.thisTrialN,trials_5.thisN,trials_5.thisIndex,trials_5.ran,key_resp.keys,key_resp.rt
right,4.417,0,0,0,1,1,stim/VC_11.wav,5fd34418e94b23000a800dcc,2021-01-20_20h19.42.674,2_afc_fren,2020.2.3,Win32,60,,,,,,,,,,,,,,,,,,,,,,,,,,,,,,,,
left,0.722,0,1,1,0,1,stim/VC_01.wav,5fd34418e94b23000a800dcc,2021-01-20_20h19.42.674,2_afc_fren,2020.2.3,Win32,60,,,,,,,,,,,,,,,,,,,,,,,,,,,,,,,,
,,,,,,,stim/VC_05.wav,5fd34418e94b23000a800dcc,2021-01-20_20h19.42.674,2_afc_fren,2020.2.3,Win32,60,space,2.978,right,1.019,0,0,0,4,1,,,,,,,,,,,,,,,,,,,,,,,
,,,,,,,stim/VC_07.wav,5fd34418e94b23000a800dcc,2021-01-20_20h19.42.674,2_afc_fren,2020.2.3,Win32,60,,,right,0.795,0,1,1,6,1,,,,,,,,,,,,,,,,,,,,,,,
,,,,,,,stim/VC_11.wav,5fd34418e94b23000a800dcc,2021-01-20_20h19.42.674,2_afc_fren,2020.2.3,Win32,60,,,right,0.7,0,2,2,10,1,,,,,,,,,,,,,,,,,,,,,,,
,,,,,,,stim/VC_10.wav,5fd34418e94b23000a800dcc,2021-01-20_20h19.42.674,2_afc_fren,2020.2.3,Win32,60,,,right,0.767,0,3,3,9,1,,,,,,,,,,,,,,,,,,,,,,,
,,,,,,,stim/VC_08.wav,5fd34418e94b23000a800dcc,2021-01-20_20h19.42.674,2_afc_fren,2020.2.3,Win32,60,,,right,0.634,0,4,4,7,1,,,,,,,,,,,,,,,,,,,,,,,
,,,,,,,stim/VC_02.wav,5fd34418e94b23000a800dcc,2021-01-20_20h19.42.674,2_afc_fren,2020.2.3,Win32,60,,,left,0.633,0,5,5,1,1,,,,,,,,,,,,,,,,,,,,,,,
,,,,,,,stim/VC_03.wav,5fd34418e94b23000a800dcc,2021-01-20_20h19.42.674,2_afc_fren,2020.2.3,Win32,60,,,left,0.668,0,6,6,2,1,,,,,,,,,,,,,,,,,,,,,,,
,,,,,,,stim/VC_04.wav,5fd34418e94b23000a800dcc,2021-01-20_20h19.42.674,2_afc_fren,2020.2.3,Win32,60,,,left,0.634,0,7,7,3,1,,,,,,,,,,,,,,,,,,,,,,,
,,,,,,,stim/VC_01.wav,5fd34418e94b23000a800dcc,2021-01-20_20h19.42.674,2_afc_fren,2020.2.3,Win32,60,,,left,0.667,0,8,8,0,1,,,,,,,,,,,,,,,,,,,,,,,
,,,,,,,stim/VC_06.wav,5fd34418e94b23000a800dcc,2021-01-20_20h19.42.674,2_afc_fren,2020.2.3,Win32,60,,,right,0.734,0,9,9,5,1,,,,,,,,,,,,,,,,,,,,,,,
,,,,,,,stim/VC_09.wav,5fd34418e94b23000a800dcc,2021-01-20_20h19.42.674,2_afc_fren,2020.2.3,Win32,60,,,right,0.687,0,10,10,8,1,,,,,,,,,,,,,,,,,,,,,,,
,,,,,,,stim/VC_07.wav,5fd34418e94b23000a800dcc,2021-01-20_20h19.42.674,2_afc_fren,2020.2.3,Win32,60,,,right,0.643,1,0,11,6,1,,,,,,,,,,,,,,,,,,,,,,,
,,,,,,,stim/VC_10.wav,5fd34418e94b23000a800dcc,2021-01-20_20h19.42.674,2_afc_fren,2020.2.3,Win32,60,,,right,0.612,1,1,12,9,1,,,,,,,,,,,,,,,,,,,,,,,
,,,,,,,stim/VC_08.wav,5fd34418e94b23000a800dcc,2021-01-20_20h19.42.674,2_afc_fren,2020.2.3,Win32,60,,,right,0.616,1,2,13,7,1,,,,,,,,,,,,,,,,,,,,,,,
,,,,,,,stim/VC_06.wav,5fd34418e94b23000a800dcc,2021-01-20_20h19.42.674,2_afc_fren,2020.2.3,Win32,60,,,right,0.624,1,3,14,5,1,,,,,,,,,,,,,,,,,,,,,,,
,,,,,,,stim/VC_05.wav,5fd34418e94b23000a800dcc,2021-01-20_20h19.42.674,2_afc_fren,2020.2.3,Win32,60,,,right,0.59,1,4,15,4,1,,,,,,,,,,,,,,,,,,,,,,,
,,,,,,,stim/VC_11.wav,5fd34418e94b23000a800dcc,2021-01-20_20h19.42.674,2_afc_fren,2020.2.3,Win32,60,,,right,0.65,1,5,16,10,1,,,,,,,,,,,,,,,,,,,,,,,
,,,,,,,stim/VC_02.wav,5fd34418e94b23000a800dcc,2021-01-20_20h19.42.674,2_afc_fren,2020.2.3,Win32,60,,,left,0.633,1,6,17,1,1,,,,,,,,,,,,,,,,,,,,,,,
,,,,,,,stim/VC_01.wav,5fd34418e94b23000a800dcc,2021-01-20_20h19.42.674,2_afc_fren,2020.2.3,Win32,60,,,left,0.6,1,7,18,0,1,,,,,,,,,,,,,,,,,,,,,,,
,,,,,,,stim/VC_09.wav,5fd34418e94b23000a800dcc,2021-01-20_20h19.42.674,2_afc_fren,2020.2.3,Win32,60,,,right,0.65,1,8,19,8,1,,,,,,,,,,,,,,,,,,,,,,,
,,,,,,,stim/VC_03.wav,5fd34418e94b23000a800dcc,2021-01-20_20h19.42.674,2_afc_fren,2020.2.3,Win32,60,,,left,0.767,1,9,20,2,1,,,,,,,,,,,,,,,,,,,,,,,
,,,,,,,stim/VC_04.wav,5fd34418e94b23000a800dcc,2021-01-20_20h19.42.674,2_afc_fren,2020.2.3,Win32,60,,,left,0.637,1,10,21,3,1,,,,,,,,,,,,,,,,,,,,,,,
,,,,,,,stim/VC_09.wav,5fd34418e94b23000a800dcc,2021-01-20_20h19.42.674,2_afc_fren,2020.2.3,Win32,60,,,right,0.667,2,0,22,8,1,,,,,,,,,,,,,,,,,,,,,,,
,,,,,,,stim/VC_08.wav,5fd34418e94b23000a800dcc,2021-01-20_20h19.42.674,2_afc_fren,2020.2.3,Win32,60,,,right,0.604,2,1,23,7,1,,,,,,,,,,,,,,,,,,,,,,,
,,,,,,,stim/VC_02.wav,5fd34418e94b23000a800dcc,2021-01-20_20h19.42.674,2_afc_fren,2020.2.3,Win32,60,,,left,0.618,2,2,24,1,1,,,,,,,,,,,,,,,,,,,,,,,
,,,,,,,stim/VC_01.wav,5fd34418e94b23000a800dcc,2021-01-20_20h19.42.674,2_afc_fren,2020.2.3,Win32,60,,,left,0.591,2,3,25,0,1,,,,,,,,,,,,,,,,,,,,,,,
,,,,,,,stim/VC_05.wav,5fd34418e94b23000a800dcc,2021-01-20_20h19.42.674,2_afc_fren,2020.2.3,Win32,60,,,right,0.7,2,4,26,4,1,,,,,,,,,,,,,,,,,,,,,,,
,,,,,,,stim/VC_07.wav,5fd34418e94b23000a800dcc,2021-01-20_20h19.42.674,2_afc_fren,2020.2.3,Win32,60,,,right,0.633,2,5,27,6,1,,,,,,,,,,,,,,,,,,,,,,,
,,,,,,,stim/VC_03.wav,5fd34418e94b23000a800dcc,2021-01-20_20h19.42.674,2_afc_fren,2020.2.3,Win32,60,,,left,0.653,2,6,28,2,1,,,,,,,,,,,,,,,,,,,,,,,
,,,,,,,stim/VC_10.wav,5fd34418e94b23000a800dcc,2021-01-20_20h19.42.674,2_afc_fren,2020.2.3,Win32,60,,,right,0.619,2,7,29,9,1,,,,,,,,,,,,,,,,,,,,,,,
,,,,,,,stim/VC_11.wav,5fd34418e94b23000a800dcc,2021-01-20_20h19.42.674,2_afc_fren,2020.2.3,Win32,60,,,right,0.655,2,8,30,10,1,,,,,,,,,,,,,,,,,,,,,,,
,,,,,,,stim/VC_04.wav,5fd34418e94b23000a800dcc,2021-01-20_20h19.42.674,2_afc_fren,2020.2.3,Win32,60,,,left,0.658,2,9,31,3,1,,,,,,,,,,,,,,,,,,,,,,,
,,,,,,,stim/VC_06.wav,5fd34418e94b23000a800dcc,2021-01-20_20h19.42.674,2_afc_fren,2020.2.3,Win32,60,,,right,0.701,2,10,32,5,1,,,,,,,,,,,,,,,,,,,,,,,
,,,,,,,stim/VC_10.wav,5fd34418e94b23000a800dcc,2021-01-20_20h19.42.674,2_afc_fren,2020.2.3,Win32,60,,,right,0.834,,,,,,7,3.682,0,0,0,9,1,,,,,,,,,,,,,,,,
,,,,,,,stim/VC_07.wav,5fd34418e94b23000a800dcc,2021-01-20_20h19.42.674,2_afc_fren,2020.2.3,Win32,60,,,right,0.644,,,,,,,,0,1,1,6,1,,,,,,,,,,,,,,,,
,,,,,,,stim/VC_05.wav,5fd34418e94b23000a800dcc,2021-01-20_20h19.42.674,2_afc_fren,2020.2.3,Win32,60,,,right,0.686,,,,,,,,0,2,2,4,1,,,,,,,,,,,,,,,,
,,,,,,,stim/VC_02.wav,5fd34418e94b23000a800dcc,2021-01-20_20h19.42.674,2_afc_fren,2020.2.3,Win32,60,,,left,0.612,,,,,,,,0,3,3,1,1,,,,,,,,,,,,,,,,
,,,,,,,stim/VC_11.wav,5fd34418e94b23000a800dcc,2021-01-20_20h19.42.674,2_afc_fren,2020.2.3,Win32,60,,,right,0.601,,,,,,,,0,4,4,10,1,,,,,,,,,,,,,,,,
,,,,,,,stim/VC_08.wav,5fd34418e94b23000a800dcc,2021-01-20_20h19.42.674,2_afc_fren,2020.2.3,Win32,60,,,right,0.572,,,,,,,,0,5,5,7,1,,,,,,,,,,,,,,,,
,,,,,,,stim/VC_09.wav,5fd34418e94b23000a800dcc,2021-01-20_20h19.42.674,2_afc_fren,2020.2.3,Win32,60,,,right,0.591,,,,,,,,0,6,6,8,1,,,,,,,,,,,,,,,,
,,,,,,,stim/VC_04.wav,5fd34418e94b23000a800dcc,2021-01-20_20h19.42.674,2_afc_fren,2020.2.3,Win32,60,,,left,0.801,,,,,,,,0,7,7,3,1,,,,,,,,,,,,,,,,
,,,,,,,stim/VC_01.wav,5fd34418e94b23000a800dcc,2021-01-20_20h19.42.674,2_afc_fren,2020.2.3,Win32,60,,,left,0.728,,,,,,,,0,8,8,0,1,,,,,,,,,,,,,,,,
,,,,,,,stim/VC_06.wav,5fd34418e94b23000a800dcc,2021-01-20_20h19.42.674,2_afc_fren,2020.2.3,Win32,60,,,right,0.611,,,,,,,,0,9,9,5,1,,,,,,,,,,,,,,,,
,,,,,,,stim/VC_03.wav,5fd34418e94b23000a800dcc,2021-01-20_20h19.42.674,2_afc_fren,2020.2.3,Win32,60,,,left,0.744,,,,,,,,0,10,10,2,1,,,,,,,,,,,,,,,,
,,,,,,,stim/VC_10.wav,5fd34418e94b23000a800dcc,2021-01-20_20h19.42.674,2_afc_fren,2020.2.3,Win32,60,,,right,0.655,,,,,,,,1,0,11,9,1,,,,,,,,,,,,,,,,
,,,,,,,stim/VC_08.wav,5fd34418e94b23000a800dcc,2021-01-20_20h19.42.674,2_afc_fren,2020.2.3,Win32,60,,,right,0.721,,,,,,,,1,1,12,7,1,,,,,,,,,,,,,,,,
,,,,,,,stim/VC_07.wav,5fd34418e94b23000a800dcc,2021-01-20_20h19.42.674,2_afc_fren,2020.2.3,Win32,60,,,right,0.595,,,,,,,,1,2,13,6,1,,,,,,,,,,,,,,,,
,,,,,,,stim/VC_11.wav,5fd34418e94b23000a800dcc,2021-01-20_20h19.42.674,2_afc_fren,2020.2.3,Win32,60,,,right,0.604,,,,,,,,1,3,14,10,1,,,,,,,,,,,,,,,,
,,,,,,,stim/VC_03.wav,5fd34418e94b23000a800dcc,2021-01-20_20h19.42.674,2_afc_fren,2020.2.3,Win32,60,,,left,0.673,,,,,,,,1,4,15,2,1,,,,,,,,,,,,,,,,
,,,,,,,stim/VC_04.wav,5fd34418e94b23000a800dcc,2021-01-20_20h19.42.674,2_afc_fren,2020.2.3,Win32,60,,,left,0.76,,,,,,,,1,5,16,3,1,,,,,,,,,,,,,,,,
,,,,,,,stim/VC_01.wav,5fd34418e94b23000a800dcc,2021-01-20_20h19.42.674,2_afc_fren,2020.2.3,Win32,60,,,left,0.7,,,,,,,,1,6,17,0,1,,,,,,,,,,,,,,,,
,,,,,,,stim/VC_02.wav,5fd34418e94b23000a800dcc,2021-01-20_20h19.42.674,2_afc_fren,2020.2.3,Win32,60,,,left,0.623,,,,,,,,1,7,18,1,1,,,,,,,,,,,,,,,,
,,,,,,,stim/VC_09.wav,5fd34418e94b23000a800dcc,2021-01-20_20h19.42.674,2_afc_fren,2020.2.3,Win32,60,,,right,0.629,,,,,,,,1,8,19,8,1,,,,,,,,,,,,,,,,
,,,,,,,stim/VC_06.wav,5fd34418e94b23000a800dcc,2021-01-20_20h19.42.674,2_afc_fren,2020.2.3,Win32,60,,,right,0.601,,,,,,,,1,9,20,5,1,,,,,,,,,,,,,,,,
,,,,,,,stim/VC_05.wav,5fd34418e94b23000a800dcc,2021-01-20_20h19.42.674,2_afc_fren,2020.2.3,Win32,60,,,right,0.601,,,,,,,,1,10,21,4,1,,,,,,,,,,,,,,,,
,,,,,,,stim2/pa+45.wav,5fd34418e94b23000a800dcc,2021-01-20_20h19.42.674,2_afc_fren,2020.2.3,Win32,60,,,,,,,,,,,,,,,,,left,1.13,0,0,0,8,1,,,,,,,,,
,,,,,,,stim2/pa-05.wav,5fd34418e94b23000a800dcc,2021-01-20_20h19.42.674,2_afc_fren,2020.2.3,Win32,60,,,,,,,,,,,,,,,,,left,0.803,0,1,1,10,1,,,,,,,,,
,,,,,,,stim2/pa+40.wav,5fd34418e94b23000a800dcc,2021-01-20_20h19.42.674,2_afc_fren,2020.2.3,Win32,60,,,,,,,,,,,,,,,,,left,0.772,0,2,2,7,1,,,,,,,,,
,,,,,,,stim2/pa-30.wav,5fd34418e94b23000a800dcc,2021-01-20_20h19.42.674,2_afc_fren,2020.2.3,Win32,60,,,,,,,,,,,,,,,,,right,0.657,0,3,3,15,1,,,,,,,,,
,,,,,,,stim2/pa-35.wav,5fd34418e94b23000a800dcc,2021-01-20_20h19.42.674,2_afc_fren,2020.2.3,Win32,60,,,,,,,,,,,,,,,,,right,0.875,0,4,4,16,1,,,,,,,,,
,,,,,,,stim2/pa+05.wav,5fd34418e94b23000a800dcc,2021-01-20_20h19.42.674,2_afc_fren,2020.2.3,Win32,60,,,,,,,,,,,,,,,,,left,0.508,0,5,5,0,1,,,,,,,,,
,,,,,,,stim2/pa-10.wav,5fd34418e94b23000a800dcc,2021-01-20_20h19.42.674,2_afc_fren,2020.2.3,Win32,60,,,,,,,,,,,,,,,,,right,0.736,0,6,6,11,1,,,,,,,,,
,,,,,,,stim2/pa-15.wav,5fd34418e94b23000a800dcc,2021-01-20_20h19.42.674,2_afc_fren,2020.2.3,Win32,60,,,,,,,,,,,,,,,,,left,0.657,0,7,7,12,1,,,,,,,,,
,,,,,,,stim2/pa+20.wav,5fd34418e94b23000a800dcc,2021-01-20_20h19.42.674,2_afc_fren,2020.2.3,Win32,60,,,,,,,,,,,,,,,,,left,0.588,0,8,8,3,1,,,,,,,,,
,,,,,,,stim2/pa+35.wav,5fd34418e94b23000a800dcc,2021-01-20_20h19.42.674,2_afc_fren,2020.2.3,Win32,60,,,,,,,,,,,,,,,,,left,0.585,0,9,9,6,1,,,,,,,,,
,,,,,,,stim2/pa-20.wav,5fd34418e94b23000a800dcc,2021-01-20_20h19.42.674,2_afc_fren,2020.2.3,Win32,60,,,,,,,,,,,,,,,,,right,0.851,0,10,10,13,1,,,,,,,,,
,,,,,,,stim2/pa-25.wav,5fd34418e94b23000a800dcc,2021-01-20_20h19.42.674,2_afc_fren,2020.2.3,Win32,60,,,,,,,,,,,,,,,,,left,0.836,0,11,11,14,1,,,,,,,,,
,,,,,,,stim2/pa+10.wav,5fd34418e94b23000a800dcc,2021-01-20_20h19.42.674,2_afc_fren,2020.2.3,Win32,60,,,,,,,,,,,,,,,,,left,0.672,0,12,12,1,1,,,,,,,,,
,,,,,,,stim2/pa+50.wav,5fd34418e94b23000a800dcc,2021-01-20_20h19.42.674,2_afc_fren,2020.2.3,Win32,60,,,,,,,,,,,,,,,,,left,0.842,0,13,13,9,1,,,,,,,,,
,,,,,,,stim2/pa+15.wav,5fd34418e94b23000a800dcc,2021-01-20_20h19.42.674,2_afc_fren,2020.2.3,Win32,60,,,,,,,,,,,,,,,,,left,0.7,0,14,14,2,1,,,,,,,,,
,,,,,,,stim2/pa+25.wav,5fd34418e94b23000a800dcc,2021-01-20_20h19.42.674,2_afc_fren,2020.2.3,Win32,60,,,,,,,,,,,,,,,,,right,0.734,0,15,15,4,1,,,,,,,,,
,,,,,,,stim2/pa+30.wav,5fd34418e94b23000a800dcc,2021-01-20_20h19.42.674,2_afc_fren,2020.2.3,Win32,60,,,,,,,,,,,,,,,,,left,0.606,0,16,16,5,1,,,,,,,,,
,,,,,,,stim2/pa+30.wav,5fd34418e94b23000a800dcc,2021-01-20_20h19.42.674,2_afc_fren,2020.2.3,Win32,60,,,,,,,,,,,,,,,,,left,0.916,1,0,17,5,1,,,,,,,,,
,,,,,,,stim2/pa+10.wav,5fd34418e94b23000a800dcc,2021-01-20_20h19.42.674,2_afc_fren,2020.2.3,Win32,60,,,,,,,,,,,,,,,,,left,0.89,1,1,18,1,1,,,,,,,,,
,,,,,,,stim2/pa+15.wav,5fd34418e94b23000a800dcc,2021-01-20_20h19.42.674,2_afc_fren,2020.2.3,Win32,60,,,,,,,,,,,,,,,,,left,0.788,1,2,19,2,1,,,,,,,,,
,,,,,,,stim2/pa+25.wav,5fd34418e94b23000a800dcc,2021-01-20_20h19.42.674,2_afc_fren,2020.2.3,Win32,60,,,,,,,,,,,,,,,,,left,0.824,1,3,20,4,1,,,,,,,,,
,,,,,,,stim2/pa+45.wav,5fd34418e94b23000a800dcc,2021-01-20_20h19.42.674,2_afc_fren,2020.2.3,Win32,60,,,,,,,,,,,,,,,,,left,0.64,1,4,21,8,1,,,,,,,,,
,,,,,,,stim2/pa+40.wav,5fd34418e94b23000a800dcc,2021-01-20_20h19.42.674,2_afc_fren,2020.2.3,Win32,60,,,,,,,,,,,,,,,,,left,0.685,1,5,22,7,1,,,,,,,,,
,,,,,,,stim2/pa-15.wav,5fd34418e94b23000a800dcc,2021-01-20_20h19.42.674,2_afc_fren,2020.2.3,Win32,60,,,,,,,,,,,,,,,,,right,0.686,1,6,23,12,1,,,,,,,,,
,,,,,,,stim2/pa-10.wav,5fd34418e94b23000a800dcc,2021-01-20_20h19.42.674,2_afc_fren,2020.2.3,Win32,60,,,,,,,,,,,,,,,,,right,0.641,1,7,24,11,1,,,,,,,,,
,,,,,,,stim2/pa+50.wav,5fd34418e94b23000a800dcc,2021-01-20_20h19.42.674,2_afc_fren,2020.2.3,Win32,60,,,,,,,,,,,,,,,,,left,0.709,1,8,25,9,1,,,,,,,,,
,,,,,,,stim2/pa+05.wav,5fd34418e94b23000a800dcc,2021-01-20_20h19.42.674,2_afc_fren,2020.2.3,Win32,60,,,,,,,,,,,,,,,,,left,0.636,1,9,26,0,1,,,,,,,,,
,,,,,,,stim2/pa-30.wav,5fd34418e94b23000a800dcc,2021-01-20_20h19.42.674,2_afc_fren,2020.2.3,Win32,60,,,,,,,,,,,,,,,,,right,0.666,1,10,27,15,1,,,,,,,,,
,,,,,,,stim2/pa-35.wav,5fd34418e94b23000a800dcc,2021-01-20_20h19.42.674,2_afc_fren,2020.2.3,Win32,60,,,,,,,,,,,,,,,,,right,0.599,1,11,28,16,1,,,,,,,,,
,,,,,,,stim2/pa+35.wav,5fd34418e94b23000a800dcc,2021-01-20_20h19.42.674,2_afc_fren,2020.2.3,Win32,60,,,,,,,,,,,,,,,,,left,0.739,1,12,29,6,1,,,,,,,,,
,,,,,,,stim2/pa-05.wav,5fd34418e94b23000a800dcc,2021-01-20_20h19.42.674,2_afc_fren,2020.2.3,Win32,60,,,,,,,,,,,,,,,,,right,0.656,1,13,30,10,1,,,,,,,,,
,,,,,,,stim2/pa-25.wav,5fd34418e94b23000a800dcc,2021-01-20_20h19.42.674,2_afc_fren,2020.2.3,Win32,60,,,,,,,,,,,,,,,,,right,0.708,1,14,31,14,1,,,,,,,,,
,,,,,,,stim2/pa-20.wav,5fd34418e94b23000a800dcc,2021-01-20_20h19.42.674,2_afc_fren,2020.2.3,Win32,60,,,,,,,,,,,,,,,,,right,0.668,1,15,32,13,1,,,,,,,,,
,,,,,,,stim2/pa+20.wav,5fd34418e94b23000a800dcc,2021-01-20_20h19.42.674,2_afc_fren,2020.2.3,Win32,60,,,,,,,,,,,,,,,,,left,0.624,1,16,33,3,1,,,,,,,,,
,,,,,,,stim2/pa+20.wav,5fd34418e94b23000a800dcc,2021-01-20_20h19.42.674,2_afc_fren,2020.2.3,Win32,60,,,,,,,,,,,,,,,,,left,0.937,2,0,34,3,1,,,,,,,,,
,,,,,,,stim2/pa+25.wav,5fd34418e94b23000a800dcc,2021-01-20_20h19.42.674,2_afc_fren,2020.2.3,Win32,60,,,,,,,,,,,,,,,,,left,0.688,2,1,35,4,1,,,,,,,,,
,,,,,,,stim2/pa-20.wav,5fd34418e94b23000a800dcc,2021-01-20_20h19.42.674,2_afc_fren,2020.2.3,Win32,60,,,,,,,,,,,,,,,,,right,0.769,2,2,36,13,1,,,,,,,,,
,,,,,,,stim2/pa+35.wav,5fd34418e94b23000a800dcc,2021-01-20_20h19.42.674,2_afc_fren,2020.2.3,Win32,60,,,,,,,,,,,,,,,,,left,0.767,2,3,37,6,1,,,,,,,,,
,,,,,,,stim2/pa+45.wav,5fd34418e94b23000a800dcc,2021-01-20_20h19.42.674,2_afc_fren,2020.2.3,Win32,60,,,,,,,,,,,,,,,,,left,0.793,2,4,38,8,1,,,,,,,,,
,,,,,,,stim2/pa+40.wav,5fd34418e94b23000a800dcc,2021-01-20_20h19.42.674,2_afc_fren,2020.2.3,Win32,60,,,,,,,,,,,,,,,,,left,0.651,2,5,39,7,1,,,,,,,,,
,,,,,,,stim2/pa-05.wav,5fd34418e94b23000a800dcc,2021-01-20_20h19.42.674,2_afc_fren,2020.2.3,Win32,60,,,,,,,,,,,,,,,,,left,0.757,2,6,40,10,1,,,,,,,,,
,,,,,,,stim2/pa-35.wav,5fd34418e94b23000a800dcc,2021-01-20_20h19.42.674,2_afc_fren,2020.2.3,Win32,60,,,,,,,,,,,,,,,,,right,0.775,2,7,41,16,1,,,,,,,,,
,,,,,,,stim2/pa-25.wav,5fd34418e94b23000a800dcc,2021-01-20_20h19.42.674,2_afc_fren,2020.2.3,Win32,60,,,,,,,,,,,,,,,,,right,0.795,2,8,42,14,1,,,,,,,,,
,,,,,,,stim2/pa-10.wav,5fd34418e94b23000a800dcc,2021-01-20_20h19.42.674,2_afc_fren,2020.2.3,Win32,60,,,,,,,,,,,,,,,,,right,0.936,2,9,43,11,1,,,,,,,,,
,,,,,,,stim2/pa-30.wav,5fd34418e94b23000a800dcc,2021-01-20_20h19.42.674,2_afc_fren,2020.2.3,Win32,60,,,,,,,,,,,,,,,,,right,0.802,2,10,44,15,1,,,,,,,,,
,,,,,,,stim2/pa-15.wav,5fd34418e94b23000a800dcc,2021-01-20_20h19.42.674,2_afc_fren,2020.2.3,Win32,60,,,,,,,,,,,,,,,,,right,0.905,2,11,45,12,1,,,,,,,,,
,,,,,,,stim2/pa+30.wav,5fd34418e94b23000a800dcc,2021-01-20_20h19.42.674,2_afc_fren,2020.2.3,Win32,60,,,,,,,,,,,,,,,,,left,0.689,2,12,46,5,1,,,,,,,,,
,,,,,,,stim2/pa+15.wav,5fd34418e94b23000a800dcc,2021-01-20_20h19.42.674,2_afc_fren,2020.2.3,Win32,60,,,,,,,,,,,,,,,,,left,0.926,2,13,47,2,1,,,,,,,,,
,,,,,,,stim2/pa+05.wav,5fd34418e94b23000a800dcc,2021-01-20_20h19.42.674,2_afc_fren,2020.2.3,Win32,60,,,,,,,,,,,,,,,,,left,1.322,2,14,48,0,1,,,,,,,,,
,,,,,,,stim2/pa+10.wav,5fd34418e94b23000a800dcc,2021-01-20_20h19.42.674,2_afc_fren,2020.2.3,Win32,60,,,,,,,,,,,,,,,,,left,0.774,2,15,49,1,1,,,,,,,,,
,,,,,,,stim2/pa+50.wav,5fd34418e94b23000a800dcc,2021-01-20_20h19.42.674,2_afc_fren,2020.2.3,Win32,60,,,,,,,,,,,,,,,,,left,0.711,2,16,50,9,1,,,,,,,,,
,,,,,,,stim2/pa+15.wav,5fd34418e94b23000a800dcc,2021-01-20_20h19.42.674,2_afc_fren,2020.2.3,Win32,60,,,,,,,,,,,,,,,,,left,0.602,,,,,,z,3.332,0,0,0,2,1,,
,,,,,,,stim2/pa+50.wav,5fd34418e94b23000a800dcc,2021-01-20_20h19.42.674,2_afc_fren,2020.2.3,Win32,60,,,,,,,,,,,,,,,,,left,0.618,,,,,,,,0,1,1,9,1,,
,,,,,,,stim2/pa-20.wav,5fd34418e94b23000a800dcc,2021-01-20_20h19.42.674,2_afc_fren,2020.2.3,Win32,60,,,,,,,,,,,,,,,,,right,0.725,,,,,,,,0,2,2,13,1,,
,,,,,,,stim2/pa+30.wav,5fd34418e94b23000a800dcc,2021-01-20_20h19.42.674,2_afc_fren,2020.2.3,Win32,60,,,,,,,,,,,,,,,,,left,0.688,,,,,,,,0,3,3,5,1,,
,,,,,,,stim2/pa-35.wav,5fd34418e94b23000a800dcc,2021-01-20_20h19.42.674,2_afc_fren,2020.2.3,Win32,60,,,,,,,,,,,,,,,,,right,0.633,,,,,,,,0,4,4,16,1,,
,,,,,,,stim2/pa-15.wav,5fd34418e94b23000a800dcc,2021-01-20_20h19.42.674,2_afc_fren,2020.2.3,Win32,60,,,,,,,,,,,,,,,,,right,0.767,,,,,,,,0,5,5,12,1,,
,,,,,,,stim2/pa+10.wav,5fd34418e94b23000a800dcc,2021-01-20_20h19.42.674,2_afc_fren,2020.2.3,Win32,60,,,,,,,,,,,,,,,,,left,0.993,,,,,,,,0,6,6,1,1,,
,,,,,,,stim2/pa-25.wav,5fd34418e94b23000a800dcc,2021-01-20_20h19.42.674,2_afc_fren,2020.2.3,Win32,60,,,,,,,,,,,,,,,,,right,0.66,,,,,,,,0,7,7,14,1,,
,,,,,,,stim2/pa+45.wav,5fd34418e94b23000a800dcc,2021-01-20_20h19.42.674,2_afc_fren,2020.2.3,Win32,60,,,,,,,,,,,,,,,,,left,0.7,,,,,,,,0,8,8,8,1,,
,,,,,,,stim2/pa-30.wav,5fd34418e94b23000a800dcc,2021-01-20_20h19.42.674,2_afc_fren,2020.2.3,Win32,60,,,,,,,,,,,,,,,,,right,0.795,,,,,,,,0,9,9,15,1,,
,,,,,,,stim2/pa+20.wav,5fd34418e94b23000a800dcc,2021-01-20_20h19.42.674,2_afc_fren,2020.2.3,Win32,60,,,,,,,,,,,,,,,,,left,0.852,,,,,,,,0,10,10,3,1,,
,,,,,,,stim2/pa-10.wav,5fd34418e94b23000a800dcc,2021-01-20_20h19.42.674,2_afc_fren,2020.2.3,Win32,60,,,,,,,,,,,,,,,,,right,0.797,,,,,,,,0,11,11,11,1,,
,,,,,,,stim2/pa+35.wav,5fd34418e94b23000a800dcc,2021-01-20_20h19.42.674,2_afc_fren,2020.2.3,Win32,60,,,,,,,,,,,,,,,,,left,0.637,,,,,,,,0,12,12,6,1,,
,,,,,,,stim2/pa+25.wav,5fd34418e94b23000a800dcc,2021-01-20_20h19.42.674,2_afc_fren,2020.2.3,Win32,60,,,,,,,,,,,,,,,,,left,0.637,,,,,,,,0,13,13,4,1,,
,,,,,,,stim2/pa-05.wav,5fd34418e94b23000a800dcc,2021-01-20_20h19.42.674,2_afc_fren,2020.2.3,Win32,60,,,,,,,,,,,,,,,,,left,0.742,,,,,,,,0,14,14,10,1,,
,,,,,,,stim2/pa+40.wav,5fd34418e94b23000a800dcc,2021-01-20_20h19.42.674,2_afc_fren,2020.2.3,Win32,60,,,,,,,,,,,,,,,,,right,0.725,,,,,,,,0,15,15,7,1,,
,,,,,,,stim2/pa+05.wav,5fd34418e94b23000a800dcc,2021-01-20_20h19.42.674,2_afc_fren,2020.2.3,Win32,60,,,,,,,,,,,,,,,,,right,0.64,,,,,,,,0,16,16,0,1,,
,,,,,,,stim2/pa-10.wav,5fd34418e94b23000a800dcc,2021-01-20_20h19.42.674,2_afc_fren,2020.2.3,Win32,60,,,,,,,,,,,,,,,,,left,0.543,,,,,,,,1,0,17,11,1,,
,,,,,,,stim2/pa+40.wav,5fd34418e94b23000a800dcc,2021-01-20_20h19.42.674,2_afc_fren,2020.2.3,Win32,60,,,,,,,,,,,,,,,,,left,0.604,,,,,,,,1,1,18,7,1,,
,,,,,,,stim2/pa+45.wav,5fd34418e94b23000a800dcc,2021-01-20_20h19.42.674,2_afc_fren,2020.2.3,Win32,60,,,,,,,,,,,,,,,,,left,0.816,,,,,,,,1,2,19,8,1,,
,,,,,,,stim2/pa-25.wav,5fd34418e94b23000a800dcc,2021-01-20_20h19.42.674,2_afc_fren,2020.2.3,Win32,60,,,,,,,,,,,,,,,,,right,0.673,,,,,,,,1,3,20,14,1,,
,,,,,,,stim2/pa+35.wav,5fd34418e94b23000a800dcc,2021-01-20_20h19.42.674,2_afc_fren,2020.2.3,Win32,60,,,,,,,,,,,,,,,,,right,0.662,,,,,,,,1,4,21,6,1,,
,,,,,,,stim2/pa+25.wav,5fd34418e94b23000a800dcc,2021-01-20_20h19.42.674,2_afc_fren,2020.2.3,Win32,60,,,,,,,,,,,,,,,,,left,0.694,,,,,,,,1,5,22,4,1,,
,,,,,,,stim2/pa-20.wav,5fd34418e94b23000a800dcc,2021-01-20_20h19.42.674,2_afc_fren,2020.2.3,Win32,60,,,,,,,,,,,,,,,,,right,0.594,,,,,,,,1,6,23,13,1,,
,,,,,,,stim2/pa+20.wav,5fd34418e94b23000a800dcc,2021-01-20_20h19.42.674,2_afc_fren,2020.2.3,Win32,60,,,,,,,,,,,,,,,,,left,0.567,,,,,,,,1,7,24,3,1,,
,,,,,,,stim2/pa+05.wav,5fd34418e94b23000a800dcc,2021-01-20_20h19.42.674,2_afc_fren,2020.2.3,Win32,60,,,,,,,,,,,,,,,,,right,0.617,,,,,,,,1,8,25,0,1,,
,,,,,,,stim2/pa-15.wav,5fd34418e94b23000a800dcc,2021-01-20_20h19.42.674,2_afc_fren,2020.2.3,Win32,60,,,,,,,,,,,,,,,,,right,0.6,,,,,,,,1,9,26,12,1,,
,,,,,,,stim2/pa+10.wav,5fd34418e94b23000a800dcc,2021-01-20_20h19.42.674,2_afc_fren,2020.2.3,Win32,60,,,,,,,,,,,,,,,,,left,0.607,,,,,,,,1,10,27,1,1,,
,,,,,,,stim2/pa-35.wav,5fd34418e94b23000a800dcc,2021-01-20_20h19.42.674,2_afc_fren,2020.2.3,Win32,60,,,,,,,,,,,,,,,,,right,0.635,,,,,,,,1,11,28,16,1,,
,,,,,,,stim2/pa-30.wav,5fd34418e94b23000a800dcc,2021-01-20_20h19.42.674,2_afc_fren,2020.2.3,Win32,60,,,,,,,,,,,,,,,,,left,0.6,,,,,,,,1,12,29,15,1,,
,,,,,,,stim2/pa+15.wav,5fd34418e94b23000a800dcc,2021-01-20_20h19.42.674,2_afc_fren,2020.2.3,Win32,60,,,,,,,,,,,,,,,,,right,0.651,,,,,,,,1,13,30,2,1,,
,,,,,,,stim2/pa+50.wav,5fd34418e94b23000a800dcc,2021-01-20_20h19.42.674,2_afc_fren,2020.2.3,Win32,60,,,,,,,,,,,,,,,,,right,0.684,,,,,,,,1,14,31,9,1,,
,,,,,,,stim2/pa-05.wav,5fd34418e94b23000a800dcc,2021-01-20_20h19.42.674,2_afc_fren,2020.2.3,Win32,60,,,,,,,,,,,,,,,,,left,0.907,,,,,,,,1,15,32,10,1,,
,,,,,,,stim2/pa+30.wav,5fd34418e94b23000a800dcc,2021-01-20_20h19.42.674,2_afc_fren,2020.2.3,Win32,60,,,,,,,,,,,,,,,,,right,0.751,,,,,,,,1,16,33,5,1,,
,,,,,,,,5fd34418e94b23000a800dcc,2021-01-20_20h19.42.674,2_afc_fren,2020.2.3,Win32,60,,,,,,,,,,,,,,,,,,,,,,,,,,,,,,,space,29.911
