resp.keys,resp.rt,trials.thisRepN,trials.thisTrialN,trials.thisN,trials.thisIndex,trials.ran,stimuli,participant,date,expName,psychopyVersion,OS,frameRate,gotResponse.keys,gotResponse.rt,resp_2.keys,resp_2.rt,trials_2.thisRepN,trials_2.thisTrialN,trials_2.thisN,trials_2.thisIndex,trials_2.ran,key_resp_3.keys,key_resp_3.rt,trials_4.thisRepN,trials_4.thisTrialN,trials_4.thisN,trials_4.thisIndex,trials_4.ran,resp_3.keys,resp_3.rt,trials_3.thisRepN,trials_3.thisTrialN,trials_3.thisN,trials_3.thisIndex,trials_3.ran,key_resp_2.keys,key_resp_2.rt,trials_5.thisRepN,trials_5.thisTrialN,trials_5.thisN,trials_5.thisIndex,trials_5.ran,key_resp.keys,key_resp.rt
right,3.936425,0,0,0,1,1,stim/VC_11.wav,5b67bffa9ed653000189ff3c,2020-12-22_23h05.44.607,2_afc_fren,2020.2.3,Win32,60,,,,,,,,,,,,,,,,,,,,,,,,,,,,,,,,
left,0.910465,0,1,1,0,1,stim/VC_01.wav,5b67bffa9ed653000189ff3c,2020-12-22_23h05.44.607,2_afc_fren,2020.2.3,Win32,60,,,,,,,,,,,,,,,,,,,,,,,,,,,,,,,,
,,,,,,,stim/VC_06.wav,5b67bffa9ed653000189ff3c,2020-12-22_23h05.44.607,2_afc_fren,2020.2.3,Win32,60,space,1.57401,right,0.81173,0,0,0,5,1,,,,,,,,,,,,,,,,,,,,,,,
,,,,,,,stim/VC_05.wav,5b67bffa9ed653000189ff3c,2020-12-22_23h05.44.607,2_afc_fren,2020.2.3,Win32,60,,,right,0.689365,0,1,1,4,1,,,,,,,,,,,,,,,,,,,,,,,
,,,,,,,stim/VC_02.wav,5b67bffa9ed653000189ff3c,2020-12-22_23h05.44.607,2_afc_fren,2020.2.3,Win32,60,,,left,0.67487,0,2,2,1,1,,,,,,,,,,,,,,,,,,,,,,,
,,,,,,,stim/VC_07.wav,5b67bffa9ed653000189ff3c,2020-12-22_23h05.44.607,2_afc_fren,2020.2.3,Win32,60,,,right,0.401005,0,3,3,6,1,,,,,,,,,,,,,,,,,,,,,,,
,,,,,,,stim/VC_08.wav,5b67bffa9ed653000189ff3c,2020-12-22_23h05.44.607,2_afc_fren,2020.2.3,Win32,60,,,right,0.46701,0,4,4,7,1,,,,,,,,,,,,,,,,,,,,,,,
,,,,,,,stim/VC_01.wav,5b67bffa9ed653000189ff3c,2020-12-22_23h05.44.607,2_afc_fren,2020.2.3,Win32,60,,,left,0.62225,0,5,5,0,1,,,,,,,,,,,,,,,,,,,,,,,
,,,,,,,stim/VC_04.wav,5b67bffa9ed653000189ff3c,2020-12-22_23h05.44.607,2_afc_fren,2020.2.3,Win32,60,,,left,1.0498,0,6,6,3,1,,,,,,,,,,,,,,,,,,,,,,,
,,,,,,,stim/VC_10.wav,5b67bffa9ed653000189ff3c,2020-12-22_23h05.44.607,2_afc_fren,2020.2.3,Win32,60,,,right,0.521425,0,7,7,9,1,,,,,,,,,,,,,,,,,,,,,,,
,,,,,,,stim/VC_11.wav,5b67bffa9ed653000189ff3c,2020-12-22_23h05.44.607,2_afc_fren,2020.2.3,Win32,60,,,right,0.448805,0,8,8,10,1,,,,,,,,,,,,,,,,,,,,,,,
,,,,,,,stim/VC_03.wav,5b67bffa9ed653000189ff3c,2020-12-22_23h05.44.607,2_afc_fren,2020.2.3,Win32,60,,,left,0.559775,0,9,9,2,1,,,,,,,,,,,,,,,,,,,,,,,
,,,,,,,stim/VC_09.wav,5b67bffa9ed653000189ff3c,2020-12-22_23h05.44.607,2_afc_fren,2020.2.3,Win32,60,,,right,0.3929,0,10,10,8,1,,,,,,,,,,,,,,,,,,,,,,,
,,,,,,,stim/VC_06.wav,5b67bffa9ed653000189ff3c,2020-12-22_23h05.44.607,2_afc_fren,2020.2.3,Win32,60,,,right,0.539065,1,0,11,5,1,,,,,,,,,,,,,,,,,,,,,,,
,,,,,,,stim/VC_01.wav,5b67bffa9ed653000189ff3c,2020-12-22_23h05.44.607,2_afc_fren,2020.2.3,Win32,60,,,left,0.5392,1,1,12,0,1,,,,,,,,,,,,,,,,,,,,,,,
,,,,,,,stim/VC_11.wav,5b67bffa9ed653000189ff3c,2020-12-22_23h05.44.607,2_afc_fren,2020.2.3,Win32,60,,,right,0.351325,1,2,13,10,1,,,,,,,,,,,,,,,,,,,,,,,
,,,,,,,stim/VC_09.wav,5b67bffa9ed653000189ff3c,2020-12-22_23h05.44.607,2_afc_fren,2020.2.3,Win32,60,,,right,0.37384,1,3,14,8,1,,,,,,,,,,,,,,,,,,,,,,,
,,,,,,,stim/VC_03.wav,5b67bffa9ed653000189ff3c,2020-12-22_23h05.44.607,2_afc_fren,2020.2.3,Win32,60,,,left,0.58731,1,4,15,2,1,,,,,,,,,,,,,,,,,,,,,,,
,,,,,,,stim/VC_10.wav,5b67bffa9ed653000189ff3c,2020-12-22_23h05.44.607,2_afc_fren,2020.2.3,Win32,60,,,right,0.407845,1,5,16,9,1,,,,,,,,,,,,,,,,,,,,,,,
,,,,,,,stim/VC_05.wav,5b67bffa9ed653000189ff3c,2020-12-22_23h05.44.607,2_afc_fren,2020.2.3,Win32,60,,,right,0.78908,1,6,17,4,1,,,,,,,,,,,,,,,,,,,,,,,
,,,,,,,stim/VC_04.wav,5b67bffa9ed653000189ff3c,2020-12-22_23h05.44.607,2_afc_fren,2020.2.3,Win32,60,,,right,3.78609,1,7,18,3,1,,,,,,,,,,,,,,,,,,,,,,,
,,,,,,,stim/VC_07.wav,5b67bffa9ed653000189ff3c,2020-12-22_23h05.44.607,2_afc_fren,2020.2.3,Win32,60,,,right,9.89395,1,8,19,6,1,,,,,,,,,,,,,,,,,,,,,,,
,,,,,,,stim/VC_08.wav,5b67bffa9ed653000189ff3c,2020-12-22_23h05.44.607,2_afc_fren,2020.2.3,Win32,60,,,right,0.603775,1,9,20,7,1,,,,,,,,,,,,,,,,,,,,,,,
,,,,,,,stim/VC_02.wav,5b67bffa9ed653000189ff3c,2020-12-22_23h05.44.607,2_afc_fren,2020.2.3,Win32,60,,,left,0.773925,1,10,21,1,1,,,,,,,,,,,,,,,,,,,,,,,
,,,,,,,stim/VC_05.wav,5b67bffa9ed653000189ff3c,2020-12-22_23h05.44.607,2_afc_fren,2020.2.3,Win32,60,,,right,2.257925,2,0,22,4,1,,,,,,,,,,,,,,,,,,,,,,,
,,,,,,,stim/VC_09.wav,5b67bffa9ed653000189ff3c,2020-12-22_23h05.44.607,2_afc_fren,2020.2.3,Win32,60,,,right,0.644255,2,1,23,8,1,,,,,,,,,,,,,,,,,,,,,,,
,,,,,,,stim/VC_02.wav,5b67bffa9ed653000189ff3c,2020-12-22_23h05.44.607,2_afc_fren,2020.2.3,Win32,60,,,left,0.78267,2,2,24,1,1,,,,,,,,,,,,,,,,,,,,,,,
,,,,,,,stim/VC_03.wav,5b67bffa9ed653000189ff3c,2020-12-22_23h05.44.607,2_afc_fren,2020.2.3,Win32,60,,,left,0.988815,2,3,25,2,1,,,,,,,,,,,,,,,,,,,,,,,
,,,,,,,stim/VC_11.wav,5b67bffa9ed653000189ff3c,2020-12-22_23h05.44.607,2_afc_fren,2020.2.3,Win32,60,,,right,0.702445,2,4,26,10,1,,,,,,,,,,,,,,,,,,,,,,,
,,,,,,,stim/VC_01.wav,5b67bffa9ed653000189ff3c,2020-12-22_23h05.44.607,2_afc_fren,2020.2.3,Win32,60,,,left,0.90802,2,5,27,0,1,,,,,,,,,,,,,,,,,,,,,,,
,,,,,,,stim/VC_10.wav,5b67bffa9ed653000189ff3c,2020-12-22_23h05.44.607,2_afc_fren,2020.2.3,Win32,60,,,right,1.04002,2,6,28,9,1,,,,,,,,,,,,,,,,,,,,,,,
,,,,,,,stim/VC_07.wav,5b67bffa9ed653000189ff3c,2020-12-22_23h05.44.607,2_afc_fren,2020.2.3,Win32,60,,,right,0.93566,2,7,29,6,1,,,,,,,,,,,,,,,,,,,,,,,
,,,,,,,stim/VC_08.wav,5b67bffa9ed653000189ff3c,2020-12-22_23h05.44.607,2_afc_fren,2020.2.3,Win32,60,,,right,0.58802,2,8,30,7,1,,,,,,,,,,,,,,,,,,,,,,,
,,,,,,,stim/VC_04.wav,5b67bffa9ed653000189ff3c,2020-12-22_23h05.44.607,2_afc_fren,2020.2.3,Win32,60,,,right,0.542725,2,9,31,3,1,,,,,,,,,,,,,,,,,,,,,,,
,,,,,,,stim/VC_06.wav,5b67bffa9ed653000189ff3c,2020-12-22_23h05.44.607,2_afc_fren,2020.2.3,Win32,60,,,right,0.635545,2,10,32,5,1,,,,,,,,,,,,,,,,,,,,,,,
,,,,,,,stim/VC_02.wav,5b67bffa9ed653000189ff3c,2020-12-22_23h05.44.607,2_afc_fren,2020.2.3,Win32,60,,,left,0.8689,,,,,,7,2.382875,0,0,0,1,1,,,,,,,,,,,,,,,,
,,,,,,,stim/VC_11.wav,5b67bffa9ed653000189ff3c,2020-12-22_23h05.44.607,2_afc_fren,2020.2.3,Win32,60,,,left,0.955415,,,,,,,,0,1,1,10,1,,,,,,,,,,,,,,,,
,,,,,,,stim/VC_01.wav,5b67bffa9ed653000189ff3c,2020-12-22_23h05.44.607,2_afc_fren,2020.2.3,Win32,60,,,right,3.8042,,,,,,,,0,2,2,0,1,,,,,,,,,,,,,,,,
,,,,,,,stim/VC_03.wav,5b67bffa9ed653000189ff3c,2020-12-22_23h05.44.607,2_afc_fren,2020.2.3,Win32,60,,,right,3.17259,,,,,,,,0,3,3,2,1,,,,,,,,,,,,,,,,
,,,,,,,stim/VC_04.wav,5b67bffa9ed653000189ff3c,2020-12-22_23h05.44.607,2_afc_fren,2020.2.3,Win32,60,,,right,0.973635,,,,,,,,0,4,4,3,1,,,,,,,,,,,,,,,,
,,,,,,,stim/VC_07.wav,5b67bffa9ed653000189ff3c,2020-12-22_23h05.44.607,2_afc_fren,2020.2.3,Win32,60,,,right,0.483665,,,,,,,,0,5,5,6,1,,,,,,,,,,,,,,,,
,,,,,,,stim/VC_09.wav,5b67bffa9ed653000189ff3c,2020-12-22_23h05.44.607,2_afc_fren,2020.2.3,Win32,60,,,right,0.47668,,,,,,,,0,6,6,8,1,,,,,,,,,,,,,,,,
,,,,,,,stim/VC_10.wav,5b67bffa9ed653000189ff3c,2020-12-22_23h05.44.607,2_afc_fren,2020.2.3,Win32,60,,,right,0.433445,,,,,,,,0,7,7,9,1,,,,,,,,,,,,,,,,
,,,,,,,stim/VC_06.wav,5b67bffa9ed653000189ff3c,2020-12-22_23h05.44.607,2_afc_fren,2020.2.3,Win32,60,,,right,0.666595,,,,,,,,0,8,8,5,1,,,,,,,,,,,,,,,,
,,,,,,,stim/VC_08.wav,5b67bffa9ed653000189ff3c,2020-12-22_23h05.44.607,2_afc_fren,2020.2.3,Win32,60,,,right,0.61691,,,,,,,,0,9,9,7,1,,,,,,,,,,,,,,,,
,,,,,,,stim/VC_05.wav,5b67bffa9ed653000189ff3c,2020-12-22_23h05.44.607,2_afc_fren,2020.2.3,Win32,60,,,right,1.267455,,,,,,,,0,10,10,4,1,,,,,,,,,,,,,,,,
,,,,,,,stim/VC_02.wav,5b67bffa9ed653000189ff3c,2020-12-22_23h05.44.607,2_afc_fren,2020.2.3,Win32,60,,,right,1.65335,,,,,,,,1,0,11,1,1,,,,,,,,,,,,,,,,
,,,,,,,stim/VC_06.wav,5b67bffa9ed653000189ff3c,2020-12-22_23h05.44.607,2_afc_fren,2020.2.3,Win32,60,,,right,0.492005,,,,,,,,1,1,12,5,1,,,,,,,,,,,,,,,,
,,,,,,,stim/VC_01.wav,5b67bffa9ed653000189ff3c,2020-12-22_23h05.44.607,2_afc_fren,2020.2.3,Win32,60,,,left,0.60922,,,,,,,,1,2,13,0,1,,,,,,,,,,,,,,,,
,,,,,,,stim/VC_04.wav,5b67bffa9ed653000189ff3c,2020-12-22_23h05.44.607,2_afc_fren,2020.2.3,Win32,60,,,right,1.172545,,,,,,,,1,3,14,3,1,,,,,,,,,,,,,,,,
,,,,,,,stim/VC_08.wav,5b67bffa9ed653000189ff3c,2020-12-22_23h05.44.607,2_afc_fren,2020.2.3,Win32,60,,,right,0.419445,,,,,,,,1,4,15,7,1,,,,,,,,,,,,,,,,
,,,,,,,stim/VC_05.wav,5b67bffa9ed653000189ff3c,2020-12-22_23h05.44.607,2_afc_fren,2020.2.3,Win32,60,,,right,0.384705,,,,,,,,1,5,16,4,1,,,,,,,,,,,,,,,,
,,,,,,,stim/VC_03.wav,5b67bffa9ed653000189ff3c,2020-12-22_23h05.44.607,2_afc_fren,2020.2.3,Win32,60,,,right,1.96531,,,,,,,,1,6,17,2,1,,,,,,,,,,,,,,,,
,,,,,,,stim/VC_07.wav,5b67bffa9ed653000189ff3c,2020-12-22_23h05.44.607,2_afc_fren,2020.2.3,Win32,60,,,right,0.46784,,,,,,,,1,7,18,6,1,,,,,,,,,,,,,,,,
,,,,,,,stim/VC_11.wav,5b67bffa9ed653000189ff3c,2020-12-22_23h05.44.607,2_afc_fren,2020.2.3,Win32,60,,,right,0.3918,,,,,,,,1,8,19,10,1,,,,,,,,,,,,,,,,
,,,,,,,stim/VC_10.wav,5b67bffa9ed653000189ff3c,2020-12-22_23h05.44.607,2_afc_fren,2020.2.3,Win32,60,,,right,0.45236,,,,,,,,1,9,20,9,1,,,,,,,,,,,,,,,,
,,,,,,,stim/VC_09.wav,5b67bffa9ed653000189ff3c,2020-12-22_23h05.44.607,2_afc_fren,2020.2.3,Win32,60,,,right,0.38759,,,,,,,,1,10,21,8,1,,,,,,,,,,,,,,,,
,,,,,,,stim2/pa+20.wav,5b67bffa9ed653000189ff3c,2020-12-22_23h05.44.607,2_afc_fren,2020.2.3,Win32,60,,,,,,,,,,,,,,,,,right,0.74326,0,0,0,3,1,,,,,,,,,
,,,,,,,stim2/pa+35.wav,5b67bffa9ed653000189ff3c,2020-12-22_23h05.44.607,2_afc_fren,2020.2.3,Win32,60,,,,,,,,,,,,,,,,,right,0.30769,0,1,1,6,1,,,,,,,,,
,,,,,,,stim2/pa+40.wav,5b67bffa9ed653000189ff3c,2020-12-22_23h05.44.607,2_afc_fren,2020.2.3,Win32,60,,,,,,,,,,,,,,,,,right,0.164765,0,2,2,7,1,,,,,,,,,
,,,,,,,stim2/pa+45.wav,5b67bffa9ed653000189ff3c,2020-12-22_23h05.44.607,2_afc_fren,2020.2.3,Win32,60,,,,,,,,,,,,,,,,,right,0.25356,0,3,3,8,1,,,,,,,,,
,,,,,,,stim2/pa-20.wav,5b67bffa9ed653000189ff3c,2020-12-22_23h05.44.607,2_afc_fren,2020.2.3,Win32,60,,,,,,,,,,,,,,,,,right,0.15119,0,4,4,13,1,,,,,,,,,
,,,,,,,stim2/pa+05.wav,5b67bffa9ed653000189ff3c,2020-12-22_23h05.44.607,2_afc_fren,2020.2.3,Win32,60,,,,,,,,,,,,,,,,,right,0.15504,0,5,5,0,1,,,,,,,,,
,,,,,,,stim2/pa+10.wav,5b67bffa9ed653000189ff3c,2020-12-22_23h05.44.607,2_afc_fren,2020.2.3,Win32,60,,,,,,,,,,,,,,,,,right,0.091915,0,6,6,1,1,,,,,,,,,
,,,,,,,stim2/pa+50.wav,5b67bffa9ed653000189ff3c,2020-12-22_23h05.44.607,2_afc_fren,2020.2.3,Win32,60,,,,,,,,,,,,,,,,,right,0.154105,0,7,7,9,1,,,,,,,,,
,,,,,,,stim2/pa-05.wav,5b67bffa9ed653000189ff3c,2020-12-22_23h05.44.607,2_afc_fren,2020.2.3,Win32,60,,,,,,,,,,,,,,,,,right,0.262525,0,8,8,10,1,,,,,,,,,
,,,,,,,stim2/pa-15.wav,5b67bffa9ed653000189ff3c,2020-12-22_23h05.44.607,2_afc_fren,2020.2.3,Win32,60,,,,,,,,,,,,,,,,,right,0.29091,0,9,9,12,1,,,,,,,,,
,,,,,,,stim2/pa-25.wav,5b67bffa9ed653000189ff3c,2020-12-22_23h05.44.607,2_afc_fren,2020.2.3,Win32,60,,,,,,,,,,,,,,,,,right,0.267965,0,10,10,14,1,,,,,,,,,
,,,,,,,stim2/pa-30.wav,5b67bffa9ed653000189ff3c,2020-12-22_23h05.44.607,2_afc_fren,2020.2.3,Win32,60,,,,,,,,,,,,,,,,,right,0.25966,0,11,11,15,1,,,,,,,,,
,,,,,,,stim2/pa+25.wav,5b67bffa9ed653000189ff3c,2020-12-22_23h05.44.607,2_afc_fren,2020.2.3,Win32,60,,,,,,,,,,,,,,,,,right,0.225135,0,12,12,4,1,,,,,,,,,
,,,,,,,stim2/pa-35.wav,5b67bffa9ed653000189ff3c,2020-12-22_23h05.44.607,2_afc_fren,2020.2.3,Win32,60,,,,,,,,,,,,,,,,,right,0.05966,0,13,13,16,1,,,,,,,,,
,,,,,,,stim2/pa-10.wav,5b67bffa9ed653000189ff3c,2020-12-22_23h05.44.607,2_afc_fren,2020.2.3,Win32,60,,,,,,,,,,,,,,,,,right,0.28363,0,14,14,11,1,,,,,,,,,
,,,,,,,stim2/pa+30.wav,5b67bffa9ed653000189ff3c,2020-12-22_23h05.44.607,2_afc_fren,2020.2.3,Win32,60,,,,,,,,,,,,,,,,,right,0.35126,0,15,15,5,1,,,,,,,,,
,,,,,,,stim2/pa+15.wav,5b67bffa9ed653000189ff3c,2020-12-22_23h05.44.607,2_afc_fren,2020.2.3,Win32,60,,,,,,,,,,,,,,,,,right,0.33148,0,16,16,2,1,,,,,,,,,
,,,,,,,stim2/pa+05.wav,5b67bffa9ed653000189ff3c,2020-12-22_23h05.44.607,2_afc_fren,2020.2.3,Win32,60,,,,,,,,,,,,,,,,,right,1.190485,1,0,17,0,1,,,,,,,,,
,,,,,,,stim2/pa-05.wav,5b67bffa9ed653000189ff3c,2020-12-22_23h05.44.607,2_afc_fren,2020.2.3,Win32,60,,,,,,,,,,,,,,,,,right,0.46059,1,1,18,10,1,,,,,,,,,
,,,,,,,stim2/pa+15.wav,5b67bffa9ed653000189ff3c,2020-12-22_23h05.44.607,2_afc_fren,2020.2.3,Win32,60,,,,,,,,,,,,,,,,,right,0.43831,1,2,19,2,1,,,,,,,,,
,,,,,,,stim2/pa+45.wav,5b67bffa9ed653000189ff3c,2020-12-22_23h05.44.607,2_afc_fren,2020.2.3,Win32,60,,,,,,,,,,,,,,,,,right,0.3698,1,3,20,8,1,,,,,,,,,
,,,,,,,stim2/pa+35.wav,5b67bffa9ed653000189ff3c,2020-12-22_23h05.44.607,2_afc_fren,2020.2.3,Win32,60,,,,,,,,,,,,,,,,,right,0.30033,1,4,21,6,1,,,,,,,,,
,,,,,,,stim2/pa-15.wav,5b67bffa9ed653000189ff3c,2020-12-22_23h05.44.607,2_afc_fren,2020.2.3,Win32,60,,,,,,,,,,,,,,,,,right,0.31746,1,5,22,12,1,,,,,,,,,
,,,,,,,stim2/pa-10.wav,5b67bffa9ed653000189ff3c,2020-12-22_23h05.44.607,2_afc_fren,2020.2.3,Win32,60,,,,,,,,,,,,,,,,,right,0.383695,1,6,23,11,1,,,,,,,,,
,,,,,,,stim2/pa-35.wav,5b67bffa9ed653000189ff3c,2020-12-22_23h05.44.607,2_afc_fren,2020.2.3,Win32,60,,,,,,,,,,,,,,,,,right,0.369025,1,7,24,16,1,,,,,,,,,
,,,,,,,stim2/pa+50.wav,5b67bffa9ed653000189ff3c,2020-12-22_23h05.44.607,2_afc_fren,2020.2.3,Win32,60,,,,,,,,,,,,,,,,,right,0.357585,1,8,25,9,1,,,,,,,,,
,,,,,,,stim2/pa+20.wav,5b67bffa9ed653000189ff3c,2020-12-22_23h05.44.607,2_afc_fren,2020.2.3,Win32,60,,,,,,,,,,,,,,,,,right,0.433015,1,9,26,3,1,,,,,,,,,
,,,,,,,stim2/pa+10.wav,5b67bffa9ed653000189ff3c,2020-12-22_23h05.44.607,2_afc_fren,2020.2.3,Win32,60,,,,,,,,,,,,,,,,,right,0.489525,1,10,27,1,1,,,,,,,,,
,,,,,,,stim2/pa-20.wav,5b67bffa9ed653000189ff3c,2020-12-22_23h05.44.607,2_afc_fren,2020.2.3,Win32,60,,,,,,,,,,,,,,,,,right,0.550175,1,11,28,13,1,,,,,,,,,
,,,,,,,stim2/pa+25.wav,5b67bffa9ed653000189ff3c,2020-12-22_23h05.44.607,2_afc_fren,2020.2.3,Win32,60,,,,,,,,,,,,,,,,,right,0.42654,1,12,29,4,1,,,,,,,,,
,,,,,,,stim2/pa-25.wav,5b67bffa9ed653000189ff3c,2020-12-22_23h05.44.607,2_afc_fren,2020.2.3,Win32,60,,,,,,,,,,,,,,,,,right,0.380395,1,13,30,14,1,,,,,,,,,
,,,,,,,stim2/pa+30.wav,5b67bffa9ed653000189ff3c,2020-12-22_23h05.44.607,2_afc_fren,2020.2.3,Win32,60,,,,,,,,,,,,,,,,,right,0.26737,1,14,31,5,1,,,,,,,,,
,,,,,,,stim2/pa+40.wav,5b67bffa9ed653000189ff3c,2020-12-22_23h05.44.607,2_afc_fren,2020.2.3,Win32,60,,,,,,,,,,,,,,,,,right,0.369475,1,15,32,7,1,,,,,,,,,
,,,,,,,stim2/pa-30.wav,5b67bffa9ed653000189ff3c,2020-12-22_23h05.44.607,2_afc_fren,2020.2.3,Win32,60,,,,,,,,,,,,,,,,,right,0.302285,1,16,33,15,1,,,,,,,,,
,,,,,,,stim2/pa-25.wav,5b67bffa9ed653000189ff3c,2020-12-22_23h05.44.607,2_afc_fren,2020.2.3,Win32,60,,,,,,,,,,,,,,,,,right,0.31762,2,0,34,14,1,,,,,,,,,
,,,,,,,stim2/pa-30.wav,5b67bffa9ed653000189ff3c,2020-12-22_23h05.44.607,2_afc_fren,2020.2.3,Win32,60,,,,,,,,,,,,,,,,,right,0.33403,2,1,35,15,1,,,,,,,,,
,,,,,,,stim2/pa+10.wav,5b67bffa9ed653000189ff3c,2020-12-22_23h05.44.607,2_afc_fren,2020.2.3,Win32,60,,,,,,,,,,,,,,,,,right,0.18413,2,2,36,1,1,,,,,,,,,
,,,,,,,stim2/pa+35.wav,5b67bffa9ed653000189ff3c,2020-12-22_23h05.44.607,2_afc_fren,2020.2.3,Win32,60,,,,,,,,,,,,,,,,,right,0.407735,2,3,37,6,1,,,,,,,,,
,,,,,,,stim2/pa+50.wav,5b67bffa9ed653000189ff3c,2020-12-22_23h05.44.607,2_afc_fren,2020.2.3,Win32,60,,,,,,,,,,,,,,,,,right,0.31852,2,4,38,9,1,,,,,,,,,
,,,,,,,stim2/pa+25.wav,5b67bffa9ed653000189ff3c,2020-12-22_23h05.44.607,2_afc_fren,2020.2.3,Win32,60,,,,,,,,,,,,,,,,,right,0.30702,2,5,39,4,1,,,,,,,,,
,,,,,,,stim2/pa+05.wav,5b67bffa9ed653000189ff3c,2020-12-22_23h05.44.607,2_afc_fren,2020.2.3,Win32,60,,,,,,,,,,,,,,,,,right,0.273785,2,6,40,0,1,,,,,,,,,
,,,,,,,stim2/pa-05.wav,5b67bffa9ed653000189ff3c,2020-12-22_23h05.44.607,2_afc_fren,2020.2.3,Win32,60,,,,,,,,,,,,,,,,,right,0.20083,2,7,41,10,1,,,,,,,,,
,,,,,,,stim2/pa+20.wav,5b67bffa9ed653000189ff3c,2020-12-22_23h05.44.607,2_afc_fren,2020.2.3,Win32,60,,,,,,,,,,,,,,,,,right,0.335935,2,8,42,3,1,,,,,,,,,
,,,,,,,stim2/pa+45.wav,5b67bffa9ed653000189ff3c,2020-12-22_23h05.44.607,2_afc_fren,2020.2.3,Win32,60,,,,,,,,,,,,,,,,,right,0.23431,2,9,43,8,1,,,,,,,,,
,,,,,,,stim2/pa-15.wav,5b67bffa9ed653000189ff3c,2020-12-22_23h05.44.607,2_afc_fren,2020.2.3,Win32,60,,,,,,,,,,,,,,,,,right,0.438795,2,10,44,12,1,,,,,,,,,
,,,,,,,stim2/pa-10.wav,5b67bffa9ed653000189ff3c,2020-12-22_23h05.44.607,2_afc_fren,2020.2.3,Win32,60,,,,,,,,,,,,,,,,,right,0.327575,2,11,45,11,1,,,,,,,,,
,,,,,,,stim2/pa-35.wav,5b67bffa9ed653000189ff3c,2020-12-22_23h05.44.607,2_afc_fren,2020.2.3,Win32,60,,,,,,,,,,,,,,,,,right,0.238805,2,12,46,16,1,,,,,,,,,
,,,,,,,stim2/pa+40.wav,5b67bffa9ed653000189ff3c,2020-12-22_23h05.44.607,2_afc_fren,2020.2.3,Win32,60,,,,,,,,,,,,,,,,,right,0.21912,2,13,47,7,1,,,,,,,,,
,,,,,,,stim2/pa+15.wav,5b67bffa9ed653000189ff3c,2020-12-22_23h05.44.607,2_afc_fren,2020.2.3,Win32,60,,,,,,,,,,,,,,,,,right,0.168405,2,14,48,2,1,,,,,,,,,
,,,,,,,stim2/pa-20.wav,5b67bffa9ed653000189ff3c,2020-12-22_23h05.44.607,2_afc_fren,2020.2.3,Win32,60,,,,,,,,,,,,,,,,,right,0.217945,2,15,49,13,1,,,,,,,,,
,,,,,,,stim2/pa+30.wav,5b67bffa9ed653000189ff3c,2020-12-22_23h05.44.607,2_afc_fren,2020.2.3,Win32,60,,,,,,,,,,,,,,,,,right,0.300295,2,16,50,5,1,,,,,,,,,
,,,,,,,stim2/pa+30.wav,5b67bffa9ed653000189ff3c,2020-12-22_23h05.44.607,2_afc_fren,2020.2.3,Win32,60,,,,,,,,,,,,,,,,,right,0.53315,,,,,,z,2.25514,0,0,0,5,1,,
,,,,,,,stim2/pa-20.wav,5b67bffa9ed653000189ff3c,2020-12-22_23h05.44.607,2_afc_fren,2020.2.3,Win32,60,,,,,,,,,,,,,,,,,right,0.32065,,,,,,,,0,1,1,13,1,,
,,,,,,,stim2/pa-35.wav,5b67bffa9ed653000189ff3c,2020-12-22_23h05.44.607,2_afc_fren,2020.2.3,Win32,60,,,,,,,,,,,,,,,,,right,0.285035,,,,,,,,0,2,2,16,1,,
,,,,,,,stim2/pa-30.wav,5b67bffa9ed653000189ff3c,2020-12-22_23h05.44.607,2_afc_fren,2020.2.3,Win32,60,,,,,,,,,,,,,,,,,right,0.291745,,,,,,,,0,3,3,15,1,,
,,,,,,,stim2/pa+50.wav,5b67bffa9ed653000189ff3c,2020-12-22_23h05.44.607,2_afc_fren,2020.2.3,Win32,60,,,,,,,,,,,,,,,,,right,0.27501,,,,,,,,0,4,4,9,1,,
,,,,,,,stim2/pa-10.wav,5b67bffa9ed653000189ff3c,2020-12-22_23h05.44.607,2_afc_fren,2020.2.3,Win32,60,,,,,,,,,,,,,,,,,right,0.31894,,,,,,,,0,5,5,11,1,,
,,,,,,,stim2/pa+05.wav,5b67bffa9ed653000189ff3c,2020-12-22_23h05.44.607,2_afc_fren,2020.2.3,Win32,60,,,,,,,,,,,,,,,,,right,0.25162,,,,,,,,0,6,6,0,1,,
,,,,,,,stim2/pa+10.wav,5b67bffa9ed653000189ff3c,2020-12-22_23h05.44.607,2_afc_fren,2020.2.3,Win32,60,,,,,,,,,,,,,,,,,right,0.28499,,,,,,,,0,7,7,1,1,,
,,,,,,,stim2/pa+20.wav,5b67bffa9ed653000189ff3c,2020-12-22_23h05.44.607,2_afc_fren,2020.2.3,Win32,60,,,,,,,,,,,,,,,,,right,0.275375,,,,,,,,0,8,8,3,1,,
,,,,,,,stim2/pa+25.wav,5b67bffa9ed653000189ff3c,2020-12-22_23h05.44.607,2_afc_fren,2020.2.3,Win32,60,,,,,,,,,,,,,,,,,right,0.197465,,,,,,,,0,9,9,4,1,,
,,,,,,,stim2/pa+45.wav,5b67bffa9ed653000189ff3c,2020-12-22_23h05.44.607,2_afc_fren,2020.2.3,Win32,60,,,,,,,,,,,,,,,,,right,0.21827,,,,,,,,0,10,10,8,1,,
,,,,,,,stim2/pa+35.wav,5b67bffa9ed653000189ff3c,2020-12-22_23h05.44.607,2_afc_fren,2020.2.3,Win32,60,,,,,,,,,,,,,,,,,right,0.11885,,,,,,,,0,11,11,6,1,,
,,,,,,,stim2/pa-05.wav,5b67bffa9ed653000189ff3c,2020-12-22_23h05.44.607,2_afc_fren,2020.2.3,Win32,60,,,,,,,,,,,,,,,,,right,0.23961,,,,,,,,0,12,12,10,1,,
,,,,,,,stim2/pa+15.wav,5b67bffa9ed653000189ff3c,2020-12-22_23h05.44.607,2_afc_fren,2020.2.3,Win32,60,,,,,,,,,,,,,,,,,right,0.268115,,,,,,,,0,13,13,2,1,,
,,,,,,,stim2/pa-15.wav,5b67bffa9ed653000189ff3c,2020-12-22_23h05.44.607,2_afc_fren,2020.2.3,Win32,60,,,,,,,,,,,,,,,,,right,0.318745,,,,,,,,0,14,14,12,1,,
,,,,,,,stim2/pa+40.wav,5b67bffa9ed653000189ff3c,2020-12-22_23h05.44.607,2_afc_fren,2020.2.3,Win32,60,,,,,,,,,,,,,,,,,right,0.269405,,,,,,,,0,15,15,7,1,,
,,,,,,,stim2/pa-25.wav,5b67bffa9ed653000189ff3c,2020-12-22_23h05.44.607,2_afc_fren,2020.2.3,Win32,60,,,,,,,,,,,,,,,,,right,0.24498,,,,,,,,0,16,16,14,1,,
,,,,,,,stim2/pa+25.wav,5b67bffa9ed653000189ff3c,2020-12-22_23h05.44.607,2_afc_fren,2020.2.3,Win32,60,,,,,,,,,,,,,,,,,right,0.23377,,,,,,,,1,0,17,4,1,,
,,,,,,,stim2/pa+45.wav,5b67bffa9ed653000189ff3c,2020-12-22_23h05.44.607,2_afc_fren,2020.2.3,Win32,60,,,,,,,,,,,,,,,,,right,0.250715,,,,,,,,1,1,18,8,1,,
,,,,,,,stim2/pa-15.wav,5b67bffa9ed653000189ff3c,2020-12-22_23h05.44.607,2_afc_fren,2020.2.3,Win32,60,,,,,,,,,,,,,,,,,right,0.283885,,,,,,,,1,2,19,12,1,,
,,,,,,,stim2/pa+20.wav,5b67bffa9ed653000189ff3c,2020-12-22_23h05.44.607,2_afc_fren,2020.2.3,Win32,60,,,,,,,,,,,,,,,,,right,0.308,,,,,,,,1,3,20,3,1,,
,,,,,,,stim2/pa+10.wav,5b67bffa9ed653000189ff3c,2020-12-22_23h05.44.607,2_afc_fren,2020.2.3,Win32,60,,,,,,,,,,,,,,,,,right,0.256885,,,,,,,,1,4,21,1,1,,
,,,,,,,stim2/pa+40.wav,5b67bffa9ed653000189ff3c,2020-12-22_23h05.44.607,2_afc_fren,2020.2.3,Win32,60,,,,,,,,,,,,,,,,,right,0.300165,,,,,,,,1,5,22,7,1,,
,,,,,,,stim2/pa-10.wav,5b67bffa9ed653000189ff3c,2020-12-22_23h05.44.607,2_afc_fren,2020.2.3,Win32,60,,,,,,,,,,,,,,,,,right,0.286105,,,,,,,,1,6,23,11,1,,
,,,,,,,stim2/pa+30.wav,5b67bffa9ed653000189ff3c,2020-12-22_23h05.44.607,2_afc_fren,2020.2.3,Win32,60,,,,,,,,,,,,,,,,,right,0.277235,,,,,,,,1,7,24,5,1,,
,,,,,,,stim2/pa+15.wav,5b67bffa9ed653000189ff3c,2020-12-22_23h05.44.607,2_afc_fren,2020.2.3,Win32,60,,,,,,,,,,,,,,,,,right,0.271475,,,,,,,,1,8,25,2,1,,
,,,,,,,stim2/pa-35.wav,5b67bffa9ed653000189ff3c,2020-12-22_23h05.44.607,2_afc_fren,2020.2.3,Win32,60,,,,,,,,,,,,,,,,,right,0.30802,,,,,,,,1,9,26,16,1,,
,,,,,,,stim2/pa-30.wav,5b67bffa9ed653000189ff3c,2020-12-22_23h05.44.607,2_afc_fren,2020.2.3,Win32,60,,,,,,,,,,,,,,,,,right,0.49869,,,,,,,,1,10,27,15,1,,
,,,,,,,stim2/pa+05.wav,5b67bffa9ed653000189ff3c,2020-12-22_23h05.44.607,2_afc_fren,2020.2.3,Win32,60,,,,,,,,,,,,,,,,,right,0.3427,,,,,,,,1,11,28,0,1,,
,,,,,,,stim2/pa-20.wav,5b67bffa9ed653000189ff3c,2020-12-22_23h05.44.607,2_afc_fren,2020.2.3,Win32,60,,,,,,,,,,,,,,,,,right,0.456645,,,,,,,,1,12,29,13,1,,
,,,,,,,stim2/pa-25.wav,5b67bffa9ed653000189ff3c,2020-12-22_23h05.44.607,2_afc_fren,2020.2.3,Win32,60,,,,,,,,,,,,,,,,,right,0.466965,,,,,,,,1,13,30,14,1,,
,,,,,,,stim2/pa+50.wav,5b67bffa9ed653000189ff3c,2020-12-22_23h05.44.607,2_afc_fren,2020.2.3,Win32,60,,,,,,,,,,,,,,,,,right,2.488095,,,,,,,,1,14,31,9,1,,
,,,,,,,stim2/pa+35.wav,5b67bffa9ed653000189ff3c,2020-12-22_23h05.44.607,2_afc_fren,2020.2.3,Win32,60,,,,,,,,,,,,,,,,,right,0.54309,,,,,,,,1,15,32,6,1,,
,,,,,,,stim2/pa-05.wav,5b67bffa9ed653000189ff3c,2020-12-22_23h05.44.607,2_afc_fren,2020.2.3,Win32,60,,,,,,,,,,,,,,,,,right,0.426385,,,,,,,,1,16,33,10,1,,
,,,,,,,,5b67bffa9ed653000189ff3c,2020-12-22_23h05.44.607,2_afc_fren,2020.2.3,Win32,60,,,,,,,,,,,,,,,,,,,,,,,,,,,,,,,space,19.15574
