resp.keys,resp.rt,trials.thisRepN,trials.thisTrialN,trials.thisN,trials.thisIndex,trials.ran,stimuli,participant,date,expName,psychopyVersion,OS,frameRate,gotResponse.keys,gotResponse.rt,resp_2.keys,resp_2.rt,trials_2.thisRepN,trials_2.thisTrialN,trials_2.thisN,trials_2.thisIndex,trials_2.ran,key_resp_3.keys,key_resp_3.rt,trials_4.thisRepN,trials_4.thisTrialN,trials_4.thisN,trials_4.thisIndex,trials_4.ran,resp_3.keys,resp_3.rt,trials_3.thisRepN,trials_3.thisTrialN,trials_3.thisN,trials_3.thisIndex,trials_3.ran,key_resp_2.keys,key_resp_2.rt,trials_5.thisRepN,trials_5.thisTrialN,trials_5.thisN,trials_5.thisIndex,trials_5.ran,key_resp.keys,key_resp.rt
left,0.907465,0,0,0,0,1,stim/VC_01.wav,5b77869d338a9300015468cf,2021-01-20_18h28.02.840,2_afc_fren,2020.2.3,Win32,60,,,,,,,,,,,,,,,,,,,,,,,,,,,,,,,,
right,0.648295,0,1,1,1,1,stim/VC_11.wav,5b77869d338a9300015468cf,2021-01-20_18h28.02.840,2_afc_fren,2020.2.3,Win32,60,,,,,,,,,,,,,,,,,,,,,,,,,,,,,,,,
,,,,,,,stim/VC_02.wav,5b77869d338a9300015468cf,2021-01-20_18h28.02.840,2_afc_fren,2020.2.3,Win32,60,space,1.29776,left,0.64817,0,0,0,1,1,,,,,,,,,,,,,,,,,,,,,,,
,,,,,,,stim/VC_05.wav,5b77869d338a9300015468cf,2021-01-20_18h28.02.840,2_afc_fren,2020.2.3,Win32,60,,,right,0.83417,0,1,1,4,1,,,,,,,,,,,,,,,,,,,,,,,
,,,,,,,stim/VC_03.wav,5b77869d338a9300015468cf,2021-01-20_18h28.02.840,2_afc_fren,2020.2.3,Win32,60,,,left,0.456785,0,2,2,2,1,,,,,,,,,,,,,,,,,,,,,,,
,,,,,,,stim/VC_10.wav,5b77869d338a9300015468cf,2021-01-20_18h28.02.840,2_afc_fren,2020.2.3,Win32,60,,,right,0.55686,0,3,3,9,1,,,,,,,,,,,,,,,,,,,,,,,
,,,,,,,stim/VC_01.wav,5b77869d338a9300015468cf,2021-01-20_18h28.02.840,2_afc_fren,2020.2.3,Win32,60,,,left,0.526505,0,4,4,0,1,,,,,,,,,,,,,,,,,,,,,,,
,,,,,,,stim/VC_08.wav,5b77869d338a9300015468cf,2021-01-20_18h28.02.840,2_afc_fren,2020.2.3,Win32,60,,,right,0.535905,0,5,5,7,1,,,,,,,,,,,,,,,,,,,,,,,
,,,,,,,stim/VC_04.wav,5b77869d338a9300015468cf,2021-01-20_18h28.02.840,2_afc_fren,2020.2.3,Win32,60,,,right,0.905805,0,6,6,3,1,,,,,,,,,,,,,,,,,,,,,,,
,,,,,,,stim/VC_06.wav,5b77869d338a9300015468cf,2021-01-20_18h28.02.840,2_afc_fren,2020.2.3,Win32,60,,,right,1.220845,0,7,7,5,1,,,,,,,,,,,,,,,,,,,,,,,
,,,,,,,stim/VC_09.wav,5b77869d338a9300015468cf,2021-01-20_18h28.02.840,2_afc_fren,2020.2.3,Win32,60,,,right,0.702795,0,8,8,8,1,,,,,,,,,,,,,,,,,,,,,,,
,,,,,,,stim/VC_11.wav,5b77869d338a9300015468cf,2021-01-20_18h28.02.840,2_afc_fren,2020.2.3,Win32,60,,,right,0.52171,0,9,9,10,1,,,,,,,,,,,,,,,,,,,,,,,
,,,,,,,stim/VC_07.wav,5b77869d338a9300015468cf,2021-01-20_18h28.02.840,2_afc_fren,2020.2.3,Win32,60,,,right,0.717115,0,10,10,6,1,,,,,,,,,,,,,,,,,,,,,,,
,,,,,,,stim/VC_05.wav,5b77869d338a9300015468cf,2021-01-20_18h28.02.840,2_afc_fren,2020.2.3,Win32,60,,,left,0.47838,1,0,11,4,1,,,,,,,,,,,,,,,,,,,,,,,
,,,,,,,stim/VC_09.wav,5b77869d338a9300015468cf,2021-01-20_18h28.02.840,2_afc_fren,2020.2.3,Win32,60,,,right,0.584275,1,1,12,8,1,,,,,,,,,,,,,,,,,,,,,,,
,,,,,,,stim/VC_06.wav,5b77869d338a9300015468cf,2021-01-20_18h28.02.840,2_afc_fren,2020.2.3,Win32,60,,,left,0.62413,1,2,13,5,1,,,,,,,,,,,,,,,,,,,,,,,
,,,,,,,stim/VC_08.wav,5b77869d338a9300015468cf,2021-01-20_18h28.02.840,2_afc_fren,2020.2.3,Win32,60,,,right,0.54438,1,3,14,7,1,,,,,,,,,,,,,,,,,,,,,,,
,,,,,,,stim/VC_01.wav,5b77869d338a9300015468cf,2021-01-20_18h28.02.840,2_afc_fren,2020.2.3,Win32,60,,,left,0.56692,1,4,15,0,1,,,,,,,,,,,,,,,,,,,,,,,
,,,,,,,stim/VC_10.wav,5b77869d338a9300015468cf,2021-01-20_18h28.02.840,2_afc_fren,2020.2.3,Win32,60,,,right,0.4508,1,5,16,9,1,,,,,,,,,,,,,,,,,,,,,,,
,,,,,,,stim/VC_02.wav,5b77869d338a9300015468cf,2021-01-20_18h28.02.840,2_afc_fren,2020.2.3,Win32,60,,,left,0.48705,1,6,17,1,1,,,,,,,,,,,,,,,,,,,,,,,
,,,,,,,stim/VC_03.wav,5b77869d338a9300015468cf,2021-01-20_18h28.02.840,2_afc_fren,2020.2.3,Win32,60,,,left,0.438065,1,7,18,2,1,,,,,,,,,,,,,,,,,,,,,,,
,,,,,,,stim/VC_07.wav,5b77869d338a9300015468cf,2021-01-20_18h28.02.840,2_afc_fren,2020.2.3,Win32,60,,,right,0.527435,1,8,19,6,1,,,,,,,,,,,,,,,,,,,,,,,
,,,,,,,stim/VC_04.wav,5b77869d338a9300015468cf,2021-01-20_18h28.02.840,2_afc_fren,2020.2.3,Win32,60,,,left,0.633885,1,9,20,3,1,,,,,,,,,,,,,,,,,,,,,,,
,,,,,,,stim/VC_11.wav,5b77869d338a9300015468cf,2021-01-20_18h28.02.840,2_afc_fren,2020.2.3,Win32,60,,,right,0.427605,1,10,21,10,1,,,,,,,,,,,,,,,,,,,,,,,
,,,,,,,stim/VC_06.wav,5b77869d338a9300015468cf,2021-01-20_18h28.02.840,2_afc_fren,2020.2.3,Win32,60,,,right,0.61654,2,0,22,5,1,,,,,,,,,,,,,,,,,,,,,,,
,,,,,,,stim/VC_11.wav,5b77869d338a9300015468cf,2021-01-20_18h28.02.840,2_afc_fren,2020.2.3,Win32,60,,,right,0.44371,2,1,23,10,1,,,,,,,,,,,,,,,,,,,,,,,
,,,,,,,stim/VC_09.wav,5b77869d338a9300015468cf,2021-01-20_18h28.02.840,2_afc_fren,2020.2.3,Win32,60,,,right,0.429305,2,2,24,8,1,,,,,,,,,,,,,,,,,,,,,,,
,,,,,,,stim/VC_07.wav,5b77869d338a9300015468cf,2021-01-20_18h28.02.840,2_afc_fren,2020.2.3,Win32,60,,,right,0.53123,2,3,25,6,1,,,,,,,,,,,,,,,,,,,,,,,
,,,,,,,stim/VC_08.wav,5b77869d338a9300015468cf,2021-01-20_18h28.02.840,2_afc_fren,2020.2.3,Win32,60,,,right,0.589785,2,4,26,7,1,,,,,,,,,,,,,,,,,,,,,,,
,,,,,,,stim/VC_01.wav,5b77869d338a9300015468cf,2021-01-20_18h28.02.840,2_afc_fren,2020.2.3,Win32,60,,,left,0.47415,2,5,27,0,1,,,,,,,,,,,,,,,,,,,,,,,
,,,,,,,stim/VC_10.wav,5b77869d338a9300015468cf,2021-01-20_18h28.02.840,2_afc_fren,2020.2.3,Win32,60,,,right,0.43359,2,6,28,9,1,,,,,,,,,,,,,,,,,,,,,,,
,,,,,,,stim/VC_03.wav,5b77869d338a9300015468cf,2021-01-20_18h28.02.840,2_afc_fren,2020.2.3,Win32,60,,,left,0.567045,2,7,29,2,1,,,,,,,,,,,,,,,,,,,,,,,
,,,,,,,stim/VC_04.wav,5b77869d338a9300015468cf,2021-01-20_18h28.02.840,2_afc_fren,2020.2.3,Win32,60,,,left,0.55541,2,8,30,3,1,,,,,,,,,,,,,,,,,,,,,,,
,,,,,,,stim/VC_02.wav,5b77869d338a9300015468cf,2021-01-20_18h28.02.840,2_afc_fren,2020.2.3,Win32,60,,,left,0.458835,2,9,31,1,1,,,,,,,,,,,,,,,,,,,,,,,
,,,,,,,stim/VC_05.wav,5b77869d338a9300015468cf,2021-01-20_18h28.02.840,2_afc_fren,2020.2.3,Win32,60,,,right,0.671895,2,10,32,4,1,,,,,,,,,,,,,,,,,,,,,,,
,,,,,,,stim/VC_05.wav,5b77869d338a9300015468cf,2021-01-20_18h28.02.840,2_afc_fren,2020.2.3,Win32,60,,,left,0.749855,,,,,,7,2.19338,0,0,0,4,1,,,,,,,,,,,,,,,,
,,,,,,,stim/VC_10.wav,5b77869d338a9300015468cf,2021-01-20_18h28.02.840,2_afc_fren,2020.2.3,Win32,60,,,right,0.56285,,,,,,,,0,1,1,9,1,,,,,,,,,,,,,,,,
,,,,,,,stim/VC_03.wav,5b77869d338a9300015468cf,2021-01-20_18h28.02.840,2_afc_fren,2020.2.3,Win32,60,,,left,0.59597,,,,,,,,0,2,2,2,1,,,,,,,,,,,,,,,,
,,,,,,,stim/VC_09.wav,5b77869d338a9300015468cf,2021-01-20_18h28.02.840,2_afc_fren,2020.2.3,Win32,60,,,right,0.514905,,,,,,,,0,3,3,8,1,,,,,,,,,,,,,,,,
,,,,,,,stim/VC_11.wav,5b77869d338a9300015468cf,2021-01-20_18h28.02.840,2_afc_fren,2020.2.3,Win32,60,,,right,0.84535,,,,,,,,0,4,4,10,1,,,,,,,,,,,,,,,,
,,,,,,,stim/VC_06.wav,5b77869d338a9300015468cf,2021-01-20_18h28.02.840,2_afc_fren,2020.2.3,Win32,60,,,right,0.54954,,,,,,,,0,5,5,5,1,,,,,,,,,,,,,,,,
,,,,,,,stim/VC_04.wav,5b77869d338a9300015468cf,2021-01-20_18h28.02.840,2_afc_fren,2020.2.3,Win32,60,,,left,0.521045,,,,,,,,0,6,6,3,1,,,,,,,,,,,,,,,,
,,,,,,,stim/VC_08.wav,5b77869d338a9300015468cf,2021-01-20_18h28.02.840,2_afc_fren,2020.2.3,Win32,60,,,right,0.58385,,,,,,,,0,7,7,7,1,,,,,,,,,,,,,,,,
,,,,,,,stim/VC_02.wav,5b77869d338a9300015468cf,2021-01-20_18h28.02.840,2_afc_fren,2020.2.3,Win32,60,,,left,0.68623,,,,,,,,0,8,8,1,1,,,,,,,,,,,,,,,,
,,,,,,,stim/VC_01.wav,5b77869d338a9300015468cf,2021-01-20_18h28.02.840,2_afc_fren,2020.2.3,Win32,60,,,left,0.54262,,,,,,,,0,9,9,0,1,,,,,,,,,,,,,,,,
,,,,,,,stim/VC_07.wav,5b77869d338a9300015468cf,2021-01-20_18h28.02.840,2_afc_fren,2020.2.3,Win32,60,,,right,0.556305,,,,,,,,0,10,10,6,1,,,,,,,,,,,,,,,,
,,,,,,,stim/VC_03.wav,5b77869d338a9300015468cf,2021-01-20_18h28.02.840,2_afc_fren,2020.2.3,Win32,60,,,right,0.881305,,,,,,,,1,0,11,2,1,,,,,,,,,,,,,,,,
,,,,,,,stim/VC_10.wav,5b77869d338a9300015468cf,2021-01-20_18h28.02.840,2_afc_fren,2020.2.3,Win32,60,,,right,0.69289,,,,,,,,1,1,12,9,1,,,,,,,,,,,,,,,,
,,,,,,,stim/VC_01.wav,5b77869d338a9300015468cf,2021-01-20_18h28.02.840,2_afc_fren,2020.2.3,Win32,60,,,left,0.699925,,,,,,,,1,2,13,0,1,,,,,,,,,,,,,,,,
,,,,,,,stim/VC_06.wav,5b77869d338a9300015468cf,2021-01-20_18h28.02.840,2_afc_fren,2020.2.3,Win32,60,,,right,0.556325,,,,,,,,1,3,14,5,1,,,,,,,,,,,,,,,,
,,,,,,,stim/VC_11.wav,5b77869d338a9300015468cf,2021-01-20_18h28.02.840,2_afc_fren,2020.2.3,Win32,60,,,right,0.487445,,,,,,,,1,4,15,10,1,,,,,,,,,,,,,,,,
,,,,,,,stim/VC_07.wav,5b77869d338a9300015468cf,2021-01-20_18h28.02.840,2_afc_fren,2020.2.3,Win32,60,,,right,0.47119,,,,,,,,1,5,16,6,1,,,,,,,,,,,,,,,,
,,,,,,,stim/VC_09.wav,5b77869d338a9300015468cf,2021-01-20_18h28.02.840,2_afc_fren,2020.2.3,Win32,60,,,right,0.390695,,,,,,,,1,6,17,8,1,,,,,,,,,,,,,,,,
,,,,,,,stim/VC_02.wav,5b77869d338a9300015468cf,2021-01-20_18h28.02.840,2_afc_fren,2020.2.3,Win32,60,,,left,0.458375,,,,,,,,1,7,18,1,1,,,,,,,,,,,,,,,,
,,,,,,,stim/VC_05.wav,5b77869d338a9300015468cf,2021-01-20_18h28.02.840,2_afc_fren,2020.2.3,Win32,60,,,right,0.835795,,,,,,,,1,8,19,4,1,,,,,,,,,,,,,,,,
,,,,,,,stim/VC_04.wav,5b77869d338a9300015468cf,2021-01-20_18h28.02.840,2_afc_fren,2020.2.3,Win32,60,,,right,0.869465,,,,,,,,1,9,20,3,1,,,,,,,,,,,,,,,,
,,,,,,,stim/VC_08.wav,5b77869d338a9300015468cf,2021-01-20_18h28.02.840,2_afc_fren,2020.2.3,Win32,60,,,right,0.68909,,,,,,,,1,10,21,7,1,,,,,,,,,,,,,,,,
,,,,,,,stim2/pa+45.wav,5b77869d338a9300015468cf,2021-01-20_18h28.02.840,2_afc_fren,2020.2.3,Win32,60,,,,,,,,,,,,,,,,,left,1.12658,0,0,0,8,1,,,,,,,,,
,,,,,,,stim2/pa-35.wav,5b77869d338a9300015468cf,2021-01-20_18h28.02.840,2_afc_fren,2020.2.3,Win32,60,,,,,,,,,,,,,,,,,right,0.444745,0,1,1,16,1,,,,,,,,,
,,,,,,,stim2/pa+05.wav,5b77869d338a9300015468cf,2021-01-20_18h28.02.840,2_afc_fren,2020.2.3,Win32,60,,,,,,,,,,,,,,,,,left,0.663145,0,2,2,0,1,,,,,,,,,
,,,,,,,stim2/pa+10.wav,5b77869d338a9300015468cf,2021-01-20_18h28.02.840,2_afc_fren,2020.2.3,Win32,60,,,,,,,,,,,,,,,,,left,0.7049,0,3,3,1,1,,,,,,,,,
,,,,,,,stim2/pa-15.wav,5b77869d338a9300015468cf,2021-01-20_18h28.02.840,2_afc_fren,2020.2.3,Win32,60,,,,,,,,,,,,,,,,,right,0.37582,0,4,4,12,1,,,,,,,,,
,,,,,,,stim2/pa-20.wav,5b77869d338a9300015468cf,2021-01-20_18h28.02.840,2_afc_fren,2020.2.3,Win32,60,,,,,,,,,,,,,,,,,right,0.643,0,5,5,13,1,,,,,,,,,
,,,,,,,stim2/pa+30.wav,5b77869d338a9300015468cf,2021-01-20_18h28.02.840,2_afc_fren,2020.2.3,Win32,60,,,,,,,,,,,,,,,,,left,0.642775,0,6,6,5,1,,,,,,,,,
,,,,,,,stim2/pa+20.wav,5b77869d338a9300015468cf,2021-01-20_18h28.02.840,2_afc_fren,2020.2.3,Win32,60,,,,,,,,,,,,,,,,,left,0.683945,0,7,7,3,1,,,,,,,,,
,,,,,,,stim2/pa+40.wav,5b77869d338a9300015468cf,2021-01-20_18h28.02.840,2_afc_fren,2020.2.3,Win32,60,,,,,,,,,,,,,,,,,left,0.54378,0,8,8,7,1,,,,,,,,,
,,,,,,,stim2/pa+25.wav,5b77869d338a9300015468cf,2021-01-20_18h28.02.840,2_afc_fren,2020.2.3,Win32,60,,,,,,,,,,,,,,,,,left,0.59044,0,9,9,4,1,,,,,,,,,
,,,,,,,stim2/pa+50.wav,5b77869d338a9300015468cf,2021-01-20_18h28.02.840,2_afc_fren,2020.2.3,Win32,60,,,,,,,,,,,,,,,,,left,0.471415,0,10,10,9,1,,,,,,,,,
,,,,,,,stim2/pa-05.wav,5b77869d338a9300015468cf,2021-01-20_18h28.02.840,2_afc_fren,2020.2.3,Win32,60,,,,,,,,,,,,,,,,,right,0.43929,0,11,11,10,1,,,,,,,,,
,,,,,,,stim2/pa+35.wav,5b77869d338a9300015468cf,2021-01-20_18h28.02.840,2_afc_fren,2020.2.3,Win32,60,,,,,,,,,,,,,,,,,left,0.96131,0,12,12,6,1,,,,,,,,,
,,,,,,,stim2/pa+15.wav,5b77869d338a9300015468cf,2021-01-20_18h28.02.840,2_afc_fren,2020.2.3,Win32,60,,,,,,,,,,,,,,,,,left,0.582065,0,13,13,2,1,,,,,,,,,
,,,,,,,stim2/pa-10.wav,5b77869d338a9300015468cf,2021-01-20_18h28.02.840,2_afc_fren,2020.2.3,Win32,60,,,,,,,,,,,,,,,,,right,0.413365,0,14,14,11,1,,,,,,,,,
,,,,,,,stim2/pa-25.wav,5b77869d338a9300015468cf,2021-01-20_18h28.02.840,2_afc_fren,2020.2.3,Win32,60,,,,,,,,,,,,,,,,,left,0.448065,0,15,15,14,1,,,,,,,,,
,,,,,,,stim2/pa-30.wav,5b77869d338a9300015468cf,2021-01-20_18h28.02.840,2_afc_fren,2020.2.3,Win32,60,,,,,,,,,,,,,,,,,right,0.741185,0,16,16,15,1,,,,,,,,,
,,,,,,,stim2/pa+10.wav,5b77869d338a9300015468cf,2021-01-20_18h28.02.840,2_afc_fren,2020.2.3,Win32,60,,,,,,,,,,,,,,,,,left,0.5918,1,0,17,1,1,,,,,,,,,
,,,,,,,stim2/pa-30.wav,5b77869d338a9300015468cf,2021-01-20_18h28.02.840,2_afc_fren,2020.2.3,Win32,60,,,,,,,,,,,,,,,,,right,0.54296,1,1,18,15,1,,,,,,,,,
,,,,,,,stim2/pa+05.wav,5b77869d338a9300015468cf,2021-01-20_18h28.02.840,2_afc_fren,2020.2.3,Win32,60,,,,,,,,,,,,,,,,,left,0.520035,1,2,19,0,1,,,,,,,,,
,,,,,,,stim2/pa+15.wav,5b77869d338a9300015468cf,2021-01-20_18h28.02.840,2_afc_fren,2020.2.3,Win32,60,,,,,,,,,,,,,,,,,left,0.650385,1,3,20,2,1,,,,,,,,,
,,,,,,,stim2/pa-20.wav,5b77869d338a9300015468cf,2021-01-20_18h28.02.840,2_afc_fren,2020.2.3,Win32,60,,,,,,,,,,,,,,,,,right,0.584125,1,4,21,13,1,,,,,,,,,
,,,,,,,stim2/pa+30.wav,5b77869d338a9300015468cf,2021-01-20_18h28.02.840,2_afc_fren,2020.2.3,Win32,60,,,,,,,,,,,,,,,,,left,0.754495,1,5,22,5,1,,,,,,,,,
,,,,,,,stim2/pa-05.wav,5b77869d338a9300015468cf,2021-01-20_18h28.02.840,2_afc_fren,2020.2.3,Win32,60,,,,,,,,,,,,,,,,,right,0.61691,1,6,23,10,1,,,,,,,,,
,,,,,,,stim2/pa+25.wav,5b77869d338a9300015468cf,2021-01-20_18h28.02.840,2_afc_fren,2020.2.3,Win32,60,,,,,,,,,,,,,,,,,left,0.51752,1,7,24,4,1,,,,,,,,,
,,,,,,,stim2/pa+35.wav,5b77869d338a9300015468cf,2021-01-20_18h28.02.840,2_afc_fren,2020.2.3,Win32,60,,,,,,,,,,,,,,,,,left,0.87266,1,8,25,6,1,,,,,,,,,
,,,,,,,stim2/pa-15.wav,5b77869d338a9300015468cf,2021-01-20_18h28.02.840,2_afc_fren,2020.2.3,Win32,60,,,,,,,,,,,,,,,,,right,0.44987,1,9,26,12,1,,,,,,,,,
,,,,,,,stim2/pa+45.wav,5b77869d338a9300015468cf,2021-01-20_18h28.02.840,2_afc_fren,2020.2.3,Win32,60,,,,,,,,,,,,,,,,,left,0.661905,1,10,27,8,1,,,,,,,,,
,,,,,,,stim2/pa+20.wav,5b77869d338a9300015468cf,2021-01-20_18h28.02.840,2_afc_fren,2020.2.3,Win32,60,,,,,,,,,,,,,,,,,left,0.894375,1,11,28,3,1,,,,,,,,,
,,,,,,,stim2/pa-35.wav,5b77869d338a9300015468cf,2021-01-20_18h28.02.840,2_afc_fren,2020.2.3,Win32,60,,,,,,,,,,,,,,,,,right,0.41107,1,12,29,16,1,,,,,,,,,
,,,,,,,stim2/pa+40.wav,5b77869d338a9300015468cf,2021-01-20_18h28.02.840,2_afc_fren,2020.2.3,Win32,60,,,,,,,,,,,,,,,,,left,0.635995,1,13,30,7,1,,,,,,,,,
,,,,,,,stim2/pa-10.wav,5b77869d338a9300015468cf,2021-01-20_18h28.02.840,2_afc_fren,2020.2.3,Win32,60,,,,,,,,,,,,,,,,,right,0.626525,1,14,31,11,1,,,,,,,,,
,,,,,,,stim2/pa+50.wav,5b77869d338a9300015468cf,2021-01-20_18h28.02.840,2_afc_fren,2020.2.3,Win32,60,,,,,,,,,,,,,,,,,left,0.536295,1,15,32,9,1,,,,,,,,,
,,,,,,,stim2/pa-25.wav,5b77869d338a9300015468cf,2021-01-20_18h28.02.840,2_afc_fren,2020.2.3,Win32,60,,,,,,,,,,,,,,,,,right,0.59079,1,16,33,14,1,,,,,,,,,
,,,,,,,stim2/pa-25.wav,5b77869d338a9300015468cf,2021-01-20_18h28.02.840,2_afc_fren,2020.2.3,Win32,60,,,,,,,,,,,,,,,,,right,0.88296,2,0,34,14,1,,,,,,,,,
,,,,,,,stim2/pa-20.wav,5b77869d338a9300015468cf,2021-01-20_18h28.02.840,2_afc_fren,2020.2.3,Win32,60,,,,,,,,,,,,,,,,,right,0.64163,2,1,35,13,1,,,,,,,,,
,,,,,,,stim2/pa+10.wav,5b77869d338a9300015468cf,2021-01-20_18h28.02.840,2_afc_fren,2020.2.3,Win32,60,,,,,,,,,,,,,,,,,left,0.63521,2,2,36,1,1,,,,,,,,,
,,,,,,,stim2/pa+15.wav,5b77869d338a9300015468cf,2021-01-20_18h28.02.840,2_afc_fren,2020.2.3,Win32,60,,,,,,,,,,,,,,,,,left,0.59636,2,3,37,2,1,,,,,,,,,
,,,,,,,stim2/pa+50.wav,5b77869d338a9300015468cf,2021-01-20_18h28.02.840,2_afc_fren,2020.2.3,Win32,60,,,,,,,,,,,,,,,,,left,0.65581,2,4,38,9,1,,,,,,,,,
,,,,,,,stim2/pa+25.wav,5b77869d338a9300015468cf,2021-01-20_18h28.02.840,2_afc_fren,2020.2.3,Win32,60,,,,,,,,,,,,,,,,,left,0.684215,2,5,39,4,1,,,,,,,,,
,,,,,,,stim2/pa+35.wav,5b77869d338a9300015468cf,2021-01-20_18h28.02.840,2_afc_fren,2020.2.3,Win32,60,,,,,,,,,,,,,,,,,left,0.523745,2,6,40,6,1,,,,,,,,,
,,,,,,,stim2/pa+40.wav,5b77869d338a9300015468cf,2021-01-20_18h28.02.840,2_afc_fren,2020.2.3,Win32,60,,,,,,,,,,,,,,,,,left,0.653085,2,7,41,7,1,,,,,,,,,
,,,,,,,stim2/pa-15.wav,5b77869d338a9300015468cf,2021-01-20_18h28.02.840,2_afc_fren,2020.2.3,Win32,60,,,,,,,,,,,,,,,,,right,0.41136,2,8,42,12,1,,,,,,,,,
,,,,,,,stim2/pa-05.wav,5b77869d338a9300015468cf,2021-01-20_18h28.02.840,2_afc_fren,2020.2.3,Win32,60,,,,,,,,,,,,,,,,,right,0.517775,2,9,43,10,1,,,,,,,,,
,,,,,,,stim2/pa+45.wav,5b77869d338a9300015468cf,2021-01-20_18h28.02.840,2_afc_fren,2020.2.3,Win32,60,,,,,,,,,,,,,,,,,left,0.600325,2,10,44,8,1,,,,,,,,,
,,,,,,,stim2/pa+05.wav,5b77869d338a9300015468cf,2021-01-20_18h28.02.840,2_afc_fren,2020.2.3,Win32,60,,,,,,,,,,,,,,,,,left,0.663465,2,11,45,0,1,,,,,,,,,
,,,,,,,stim2/pa+30.wav,5b77869d338a9300015468cf,2021-01-20_18h28.02.840,2_afc_fren,2020.2.3,Win32,60,,,,,,,,,,,,,,,,,left,0.631705,2,12,46,5,1,,,,,,,,,
,,,,,,,stim2/pa-35.wav,5b77869d338a9300015468cf,2021-01-20_18h28.02.840,2_afc_fren,2020.2.3,Win32,60,,,,,,,,,,,,,,,,,right,0.461645,2,13,47,16,1,,,,,,,,,
,,,,,,,stim2/pa+20.wav,5b77869d338a9300015468cf,2021-01-20_18h28.02.840,2_afc_fren,2020.2.3,Win32,60,,,,,,,,,,,,,,,,,left,0.62281,2,14,48,3,1,,,,,,,,,
,,,,,,,stim2/pa-30.wav,5b77869d338a9300015468cf,2021-01-20_18h28.02.840,2_afc_fren,2020.2.3,Win32,60,,,,,,,,,,,,,,,,,right,0.49395,2,15,49,15,1,,,,,,,,,
,,,,,,,stim2/pa-10.wav,5b77869d338a9300015468cf,2021-01-20_18h28.02.840,2_afc_fren,2020.2.3,Win32,60,,,,,,,,,,,,,,,,,right,0.889735,2,16,50,11,1,,,,,,,,,
,,,,,,,stim2/pa-05.wav,5b77869d338a9300015468cf,2021-01-20_18h28.02.840,2_afc_fren,2020.2.3,Win32,60,,,,,,,,,,,,,,,,,right,0.88136,,,,,,z,1.714355,0,0,0,10,1,,
,,,,,,,stim2/pa-25.wav,5b77869d338a9300015468cf,2021-01-20_18h28.02.840,2_afc_fren,2020.2.3,Win32,60,,,,,,,,,,,,,,,,,right,0.72627,,,,,,,,0,1,1,14,1,,
,,,,,,,stim2/pa+45.wav,5b77869d338a9300015468cf,2021-01-20_18h28.02.840,2_afc_fren,2020.2.3,Win32,60,,,,,,,,,,,,,,,,,left,0.47981,,,,,,,,0,2,2,8,1,,
,,,,,,,stim2/pa+15.wav,5b77869d338a9300015468cf,2021-01-20_18h28.02.840,2_afc_fren,2020.2.3,Win32,60,,,,,,,,,,,,,,,,,left,0.46331,,,,,,,,0,3,3,2,1,,
,,,,,,,stim2/pa-30.wav,5b77869d338a9300015468cf,2021-01-20_18h28.02.840,2_afc_fren,2020.2.3,Win32,60,,,,,,,,,,,,,,,,,right,0.50015,,,,,,,,0,4,4,15,1,,
,,,,,,,stim2/pa-10.wav,5b77869d338a9300015468cf,2021-01-20_18h28.02.840,2_afc_fren,2020.2.3,Win32,60,,,,,,,,,,,,,,,,,right,0.49452,,,,,,,,0,5,5,11,1,,
,,,,,,,stim2/pa+25.wav,5b77869d338a9300015468cf,2021-01-20_18h28.02.840,2_afc_fren,2020.2.3,Win32,60,,,,,,,,,,,,,,,,,left,0.49361,,,,,,,,0,6,6,4,1,,
,,,,,,,stim2/pa+40.wav,5b77869d338a9300015468cf,2021-01-20_18h28.02.840,2_afc_fren,2020.2.3,Win32,60,,,,,,,,,,,,,,,,,left,0.49012,,,,,,,,0,7,7,7,1,,
,,,,,,,stim2/pa-15.wav,5b77869d338a9300015468cf,2021-01-20_18h28.02.840,2_afc_fren,2020.2.3,Win32,60,,,,,,,,,,,,,,,,,right,0.404935,,,,,,,,0,8,8,12,1,,
,,,,,,,stim2/pa+30.wav,5b77869d338a9300015468cf,2021-01-20_18h28.02.840,2_afc_fren,2020.2.3,Win32,60,,,,,,,,,,,,,,,,,right,0.42761,,,,,,,,0,9,9,5,1,,
,,,,,,,stim2/pa+50.wav,5b77869d338a9300015468cf,2021-01-20_18h28.02.840,2_afc_fren,2020.2.3,Win32,60,,,,,,,,,,,,,,,,,left,0.99712,,,,,,,,0,10,10,9,1,,
,,,,,,,stim2/pa+10.wav,5b77869d338a9300015468cf,2021-01-20_18h28.02.840,2_afc_fren,2020.2.3,Win32,60,,,,,,,,,,,,,,,,,left,0.521485,,,,,,,,0,11,11,1,1,,
,,,,,,,stim2/pa+05.wav,5b77869d338a9300015468cf,2021-01-20_18h28.02.840,2_afc_fren,2020.2.3,Win32,60,,,,,,,,,,,,,,,,,left,0.639895,,,,,,,,0,12,12,0,1,,
,,,,,,,stim2/pa-20.wav,5b77869d338a9300015468cf,2021-01-20_18h28.02.840,2_afc_fren,2020.2.3,Win32,60,,,,,,,,,,,,,,,,,right,0.392725,,,,,,,,0,13,13,13,1,,
,,,,,,,stim2/pa-35.wav,5b77869d338a9300015468cf,2021-01-20_18h28.02.840,2_afc_fren,2020.2.3,Win32,60,,,,,,,,,,,,,,,,,right,0.513515,,,,,,,,0,14,14,16,1,,
,,,,,,,stim2/pa+20.wav,5b77869d338a9300015468cf,2021-01-20_18h28.02.840,2_afc_fren,2020.2.3,Win32,60,,,,,,,,,,,,,,,,,left,0.65298,,,,,,,,0,15,15,3,1,,
,,,,,,,stim2/pa+35.wav,5b77869d338a9300015468cf,2021-01-20_18h28.02.840,2_afc_fren,2020.2.3,Win32,60,,,,,,,,,,,,,,,,,left,0.532515,,,,,,,,0,16,16,6,1,,
,,,,,,,stim2/pa-35.wav,5b77869d338a9300015468cf,2021-01-20_18h28.02.840,2_afc_fren,2020.2.3,Win32,60,,,,,,,,,,,,,,,,,right,0.572555,,,,,,,,1,0,17,16,1,,
,,,,,,,stim2/pa+15.wav,5b77869d338a9300015468cf,2021-01-20_18h28.02.840,2_afc_fren,2020.2.3,Win32,60,,,,,,,,,,,,,,,,,left,0.54008,,,,,,,,1,1,18,2,1,,
,,,,,,,stim2/pa+40.wav,5b77869d338a9300015468cf,2021-01-20_18h28.02.840,2_afc_fren,2020.2.3,Win32,60,,,,,,,,,,,,,,,,,left,0.504995,,,,,,,,1,2,19,7,1,,
,,,,,,,stim2/pa+05.wav,5b77869d338a9300015468cf,2021-01-20_18h28.02.840,2_afc_fren,2020.2.3,Win32,60,,,,,,,,,,,,,,,,,right,0.739815,,,,,,,,1,3,20,0,1,,
,,,,,,,stim2/pa+35.wav,5b77869d338a9300015468cf,2021-01-20_18h28.02.840,2_afc_fren,2020.2.3,Win32,60,,,,,,,,,,,,,,,,,left,0.67991,,,,,,,,1,4,21,6,1,,
,,,,,,,stim2/pa+20.wav,5b77869d338a9300015468cf,2021-01-20_18h28.02.840,2_afc_fren,2020.2.3,Win32,60,,,,,,,,,,,,,,,,,left,0.51103,,,,,,,,1,5,22,3,1,,
,,,,,,,stim2/pa-10.wav,5b77869d338a9300015468cf,2021-01-20_18h28.02.840,2_afc_fren,2020.2.3,Win32,60,,,,,,,,,,,,,,,,,right,0.472035,,,,,,,,1,6,23,11,1,,
,,,,,,,stim2/pa+10.wav,5b77869d338a9300015468cf,2021-01-20_18h28.02.840,2_afc_fren,2020.2.3,Win32,60,,,,,,,,,,,,,,,,,left,0.488975,,,,,,,,1,7,24,1,1,,
,,,,,,,stim2/pa-25.wav,5b77869d338a9300015468cf,2021-01-20_18h28.02.840,2_afc_fren,2020.2.3,Win32,60,,,,,,,,,,,,,,,,,right,0.87564,,,,,,,,1,8,25,14,1,,
,,,,,,,stim2/pa+30.wav,5b77869d338a9300015468cf,2021-01-20_18h28.02.840,2_afc_fren,2020.2.3,Win32,60,,,,,,,,,,,,,,,,,left,0.816895,,,,,,,,1,9,26,5,1,,
,,,,,,,stim2/pa-05.wav,5b77869d338a9300015468cf,2021-01-20_18h28.02.840,2_afc_fren,2020.2.3,Win32,60,,,,,,,,,,,,,,,,,left,0.761465,,,,,,,,1,10,27,10,1,,
,,,,,,,stim2/pa-20.wav,5b77869d338a9300015468cf,2021-01-20_18h28.02.840,2_afc_fren,2020.2.3,Win32,60,,,,,,,,,,,,,,,,,right,0.416525,,,,,,,,1,11,28,13,1,,
,,,,,,,stim2/pa+50.wav,5b77869d338a9300015468cf,2021-01-20_18h28.02.840,2_afc_fren,2020.2.3,Win32,60,,,,,,,,,,,,,,,,,left,0.5537,,,,,,,,1,12,29,9,1,,
,,,,,,,stim2/pa-15.wav,5b77869d338a9300015468cf,2021-01-20_18h28.02.840,2_afc_fren,2020.2.3,Win32,60,,,,,,,,,,,,,,,,,right,0.533265,,,,,,,,1,13,30,12,1,,
,,,,,,,stim2/pa+25.wav,5b77869d338a9300015468cf,2021-01-20_18h28.02.840,2_afc_fren,2020.2.3,Win32,60,,,,,,,,,,,,,,,,,left,0.54287,,,,,,,,1,14,31,4,1,,
,,,,,,,stim2/pa+45.wav,5b77869d338a9300015468cf,2021-01-20_18h28.02.840,2_afc_fren,2020.2.3,Win32,60,,,,,,,,,,,,,,,,,left,0.500495,,,,,,,,1,15,32,8,1,,
,,,,,,,stim2/pa-30.wav,5b77869d338a9300015468cf,2021-01-20_18h28.02.840,2_afc_fren,2020.2.3,Win32,60,,,,,,,,,,,,,,,,,right,0.5165,,,,,,,,1,16,33,15,1,,
,,,,,,,,5b77869d338a9300015468cf,2021-01-20_18h28.02.840,2_afc_fren,2020.2.3,Win32,60,,,,,,,,,,,,,,,,,,,,,,,,,,,,,,,space,5.64528
