resp.keys,resp.rt,trials.thisRepN,trials.thisTrialN,trials.thisN,trials.thisIndex,trials.ran,stimuli,participant,date,expName,psychopyVersion,OS,frameRate,gotResponse.keys,gotResponse.rt,resp_2.keys,resp_2.rt,trials_2.thisRepN,trials_2.thisTrialN,trials_2.thisN,trials_2.thisIndex,trials_2.ran,key_resp_3.keys,key_resp_3.rt,trials_4.thisRepN,trials_4.thisTrialN,trials_4.thisN,trials_4.thisIndex,trials_4.ran,resp_3.keys,resp_3.rt,trials_3.thisRepN,trials_3.thisTrialN,trials_3.thisN,trials_3.thisIndex,trials_3.ran,key_resp_2.keys,key_resp_2.rt,trials_5.thisRepN,trials_5.thisTrialN,trials_5.thisN,trials_5.thisIndex,trials_5.ran,key_resp.keys,key_resp.rt
left,4.28888,0,0,0,0,1,stim/VC_01.wav,5fac89c216b5ae293eb9cfd9,2020-12-26_09h03.06.472,2_afc_fren,2020.2.3,Win32,60,,,,,,,,,,,,,,,,,,,,,,,,,,,,,,,,
right,0.92519,0,1,1,1,1,stim/VC_11.wav,5fac89c216b5ae293eb9cfd9,2020-12-26_09h03.06.472,2_afc_fren,2020.2.3,Win32,60,,,,,,,,,,,,,,,,,,,,,,,,,,,,,,,,
,,,,,,,stim/VC_10.wav,5fac89c216b5ae293eb9cfd9,2020-12-26_09h03.06.472,2_afc_fren,2020.2.3,Win32,60,space,2.769745,right,2.05704,0,0,0,9,1,,,,,,,,,,,,,,,,,,,,,,,
,,,,,,,stim/VC_11.wav,5fac89c216b5ae293eb9cfd9,2020-12-26_09h03.06.472,2_afc_fren,2020.2.3,Win32,60,,,right,0.62897,0,1,1,10,1,,,,,,,,,,,,,,,,,,,,,,,
,,,,,,,stim/VC_03.wav,5fac89c216b5ae293eb9cfd9,2020-12-26_09h03.06.472,2_afc_fren,2020.2.3,Win32,60,,,left,0.63019,0,2,2,2,1,,,,,,,,,,,,,,,,,,,,,,,
,,,,,,,stim/VC_06.wav,5fac89c216b5ae293eb9cfd9,2020-12-26_09h03.06.472,2_afc_fren,2020.2.3,Win32,60,,,right,1.592855,0,3,3,5,1,,,,,,,,,,,,,,,,,,,,,,,
,,,,,,,stim/VC_05.wav,5fac89c216b5ae293eb9cfd9,2020-12-26_09h03.06.472,2_afc_fren,2020.2.3,Win32,60,,,left,1.930135,0,4,4,4,1,,,,,,,,,,,,,,,,,,,,,,,
,,,,,,,stim/VC_09.wav,5fac89c216b5ae293eb9cfd9,2020-12-26_09h03.06.472,2_afc_fren,2020.2.3,Win32,60,,,right,0.58745,0,5,5,8,1,,,,,,,,,,,,,,,,,,,,,,,
,,,,,,,stim/VC_04.wav,5fac89c216b5ae293eb9cfd9,2020-12-26_09h03.06.472,2_afc_fren,2020.2.3,Win32,60,,,left,0.590705,0,6,6,3,1,,,,,,,,,,,,,,,,,,,,,,,
,,,,,,,stim/VC_02.wav,5fac89c216b5ae293eb9cfd9,2020-12-26_09h03.06.472,2_afc_fren,2020.2.3,Win32,60,,,left,0.705685,0,7,7,1,1,,,,,,,,,,,,,,,,,,,,,,,
,,,,,,,stim/VC_07.wav,5fac89c216b5ae293eb9cfd9,2020-12-26_09h03.06.472,2_afc_fren,2020.2.3,Win32,60,,,right,0.784255,0,8,8,6,1,,,,,,,,,,,,,,,,,,,,,,,
,,,,,,,stim/VC_08.wav,5fac89c216b5ae293eb9cfd9,2020-12-26_09h03.06.472,2_afc_fren,2020.2.3,Win32,60,,,right,0.73782,0,9,9,7,1,,,,,,,,,,,,,,,,,,,,,,,
,,,,,,,stim/VC_01.wav,5fac89c216b5ae293eb9cfd9,2020-12-26_09h03.06.472,2_afc_fren,2020.2.3,Win32,60,,,left,0.55927,0,10,10,0,1,,,,,,,,,,,,,,,,,,,,,,,
,,,,,,,stim/VC_04.wav,5fac89c216b5ae293eb9cfd9,2020-12-26_09h03.06.472,2_afc_fren,2020.2.3,Win32,60,,,left,0.927645,1,0,11,3,1,,,,,,,,,,,,,,,,,,,,,,,
,,,,,,,stim/VC_09.wav,5fac89c216b5ae293eb9cfd9,2020-12-26_09h03.06.472,2_afc_fren,2020.2.3,Win32,60,,,right,0.525835,1,1,12,8,1,,,,,,,,,,,,,,,,,,,,,,,
,,,,,,,stim/VC_01.wav,5fac89c216b5ae293eb9cfd9,2020-12-26_09h03.06.472,2_afc_fren,2020.2.3,Win32,60,,,left,0.513745,1,2,13,0,1,,,,,,,,,,,,,,,,,,,,,,,
,,,,,,,stim/VC_02.wav,5fac89c216b5ae293eb9cfd9,2020-12-26_09h03.06.472,2_afc_fren,2020.2.3,Win32,60,,,left,0.553895,1,3,14,1,1,,,,,,,,,,,,,,,,,,,,,,,
,,,,,,,stim/VC_06.wav,5fac89c216b5ae293eb9cfd9,2020-12-26_09h03.06.472,2_afc_fren,2020.2.3,Win32,60,,,right,0.567075,1,4,15,5,1,,,,,,,,,,,,,,,,,,,,,,,
,,,,,,,stim/VC_08.wav,5fac89c216b5ae293eb9cfd9,2020-12-26_09h03.06.472,2_afc_fren,2020.2.3,Win32,60,,,right,1.079675,1,5,16,7,1,,,,,,,,,,,,,,,,,,,,,,,
,,,,,,,stim/VC_10.wav,5fac89c216b5ae293eb9cfd9,2020-12-26_09h03.06.472,2_afc_fren,2020.2.3,Win32,60,,,right,0.787495,1,6,17,9,1,,,,,,,,,,,,,,,,,,,,,,,
,,,,,,,stim/VC_03.wav,5fac89c216b5ae293eb9cfd9,2020-12-26_09h03.06.472,2_afc_fren,2020.2.3,Win32,60,,,left,0.55112,1,7,18,2,1,,,,,,,,,,,,,,,,,,,,,,,
,,,,,,,stim/VC_05.wav,5fac89c216b5ae293eb9cfd9,2020-12-26_09h03.06.472,2_afc_fren,2020.2.3,Win32,60,,,left,1.052875,1,8,19,4,1,,,,,,,,,,,,,,,,,,,,,,,
,,,,,,,stim/VC_11.wav,5fac89c216b5ae293eb9cfd9,2020-12-26_09h03.06.472,2_afc_fren,2020.2.3,Win32,60,,,right,0.667845,1,9,20,10,1,,,,,,,,,,,,,,,,,,,,,,,
,,,,,,,stim/VC_07.wav,5fac89c216b5ae293eb9cfd9,2020-12-26_09h03.06.472,2_afc_fren,2020.2.3,Win32,60,,,right,1.145255,1,10,21,6,1,,,,,,,,,,,,,,,,,,,,,,,
,,,,,,,stim/VC_07.wav,5fac89c216b5ae293eb9cfd9,2020-12-26_09h03.06.472,2_afc_fren,2020.2.3,Win32,60,,,right,0.99484,2,0,22,6,1,,,,,,,,,,,,,,,,,,,,,,,
,,,,,,,stim/VC_02.wav,5fac89c216b5ae293eb9cfd9,2020-12-26_09h03.06.472,2_afc_fren,2020.2.3,Win32,60,,,left,0.568715,2,1,23,1,1,,,,,,,,,,,,,,,,,,,,,,,
,,,,,,,stim/VC_11.wav,5fac89c216b5ae293eb9cfd9,2020-12-26_09h03.06.472,2_afc_fren,2020.2.3,Win32,60,,,right,0.76817,2,2,24,10,1,,,,,,,,,,,,,,,,,,,,,,,
,,,,,,,stim/VC_08.wav,5fac89c216b5ae293eb9cfd9,2020-12-26_09h03.06.472,2_afc_fren,2020.2.3,Win32,60,,,right,0.959405,2,3,25,7,1,,,,,,,,,,,,,,,,,,,,,,,
,,,,,,,stim/VC_09.wav,5fac89c216b5ae293eb9cfd9,2020-12-26_09h03.06.472,2_afc_fren,2020.2.3,Win32,60,,,right,0.83691,2,4,26,8,1,,,,,,,,,,,,,,,,,,,,,,,
,,,,,,,stim/VC_06.wav,5fac89c216b5ae293eb9cfd9,2020-12-26_09h03.06.472,2_afc_fren,2020.2.3,Win32,60,,,right,1.531265,2,5,27,5,1,,,,,,,,,,,,,,,,,,,,,,,
,,,,,,,stim/VC_04.wav,5fac89c216b5ae293eb9cfd9,2020-12-26_09h03.06.472,2_afc_fren,2020.2.3,Win32,60,,,left,1.952645,2,6,28,3,1,,,,,,,,,,,,,,,,,,,,,,,
,,,,,,,stim/VC_10.wav,5fac89c216b5ae293eb9cfd9,2020-12-26_09h03.06.472,2_afc_fren,2020.2.3,Win32,60,,,right,0.794875,2,7,29,9,1,,,,,,,,,,,,,,,,,,,,,,,
,,,,,,,stim/VC_01.wav,5fac89c216b5ae293eb9cfd9,2020-12-26_09h03.06.472,2_afc_fren,2020.2.3,Win32,60,,,left,0.674645,2,8,30,0,1,,,,,,,,,,,,,,,,,,,,,,,
,,,,,,,stim/VC_03.wav,5fac89c216b5ae293eb9cfd9,2020-12-26_09h03.06.472,2_afc_fren,2020.2.3,Win32,60,,,left,0.69891,2,9,31,2,1,,,,,,,,,,,,,,,,,,,,,,,
,,,,,,,stim/VC_05.wav,5fac89c216b5ae293eb9cfd9,2020-12-26_09h03.06.472,2_afc_fren,2020.2.3,Win32,60,,,left,1.43832,2,10,32,4,1,,,,,,,,,,,,,,,,,,,,,,,
,,,,,,,stim/VC_03.wav,5fac89c216b5ae293eb9cfd9,2020-12-26_09h03.06.472,2_afc_fren,2020.2.3,Win32,60,,,left,0.709065,,,,,,7,6.0048,0,0,0,2,1,,,,,,,,,,,,,,,,
,,,,,,,stim/VC_08.wav,5fac89c216b5ae293eb9cfd9,2020-12-26_09h03.06.472,2_afc_fren,2020.2.3,Win32,60,,,right,0.58182,,,,,,,,0,1,1,7,1,,,,,,,,,,,,,,,,
,,,,,,,stim/VC_11.wav,5fac89c216b5ae293eb9cfd9,2020-12-26_09h03.06.472,2_afc_fren,2020.2.3,Win32,60,,,right,0.638165,,,,,,,,0,2,2,10,1,,,,,,,,,,,,,,,,
,,,,,,,stim/VC_05.wav,5fac89c216b5ae293eb9cfd9,2020-12-26_09h03.06.472,2_afc_fren,2020.2.3,Win32,60,,,left,0.75574,,,,,,,,0,3,3,4,1,,,,,,,,,,,,,,,,
,,,,,,,stim/VC_04.wav,5fac89c216b5ae293eb9cfd9,2020-12-26_09h03.06.472,2_afc_fren,2020.2.3,Win32,60,,,left,0.69802,,,,,,,,0,4,4,3,1,,,,,,,,,,,,,,,,
,,,,,,,stim/VC_10.wav,5fac89c216b5ae293eb9cfd9,2020-12-26_09h03.06.472,2_afc_fren,2020.2.3,Win32,60,,,right,0.546815,,,,,,,,0,5,5,9,1,,,,,,,,,,,,,,,,
,,,,,,,stim/VC_06.wav,5fac89c216b5ae293eb9cfd9,2020-12-26_09h03.06.472,2_afc_fren,2020.2.3,Win32,60,,,right,1.15335,,,,,,,,0,6,6,5,1,,,,,,,,,,,,,,,,
,,,,,,,stim/VC_09.wav,5fac89c216b5ae293eb9cfd9,2020-12-26_09h03.06.472,2_afc_fren,2020.2.3,Win32,60,,,right,0.72805,,,,,,,,0,7,7,8,1,,,,,,,,,,,,,,,,
,,,,,,,stim/VC_07.wav,5fac89c216b5ae293eb9cfd9,2020-12-26_09h03.06.472,2_afc_fren,2020.2.3,Win32,60,,,right,1.418365,,,,,,,,0,8,8,6,1,,,,,,,,,,,,,,,,
,,,,,,,stim/VC_02.wav,5fac89c216b5ae293eb9cfd9,2020-12-26_09h03.06.472,2_afc_fren,2020.2.3,Win32,60,,,left,0.492825,,,,,,,,0,9,9,1,1,,,,,,,,,,,,,,,,
,,,,,,,stim/VC_01.wav,5fac89c216b5ae293eb9cfd9,2020-12-26_09h03.06.472,2_afc_fren,2020.2.3,Win32,60,,,left,0.60302,,,,,,,,0,10,10,0,1,,,,,,,,,,,,,,,,
,,,,,,,stim/VC_04.wav,5fac89c216b5ae293eb9cfd9,2020-12-26_09h03.06.472,2_afc_fren,2020.2.3,Win32,60,,,left,0.78408,,,,,,,,1,0,11,3,1,,,,,,,,,,,,,,,,
,,,,,,,stim/VC_01.wav,5fac89c216b5ae293eb9cfd9,2020-12-26_09h03.06.472,2_afc_fren,2020.2.3,Win32,60,,,left,2.185785,,,,,,,,1,1,12,0,1,,,,,,,,,,,,,,,,
,,,,,,,stim/VC_10.wav,5fac89c216b5ae293eb9cfd9,2020-12-26_09h03.06.472,2_afc_fren,2020.2.3,Win32,60,,,right,0.954095,,,,,,,,1,2,13,9,1,,,,,,,,,,,,,,,,
,,,,,,,stim/VC_09.wav,5fac89c216b5ae293eb9cfd9,2020-12-26_09h03.06.472,2_afc_fren,2020.2.3,Win32,60,,,right,0.665735,,,,,,,,1,3,14,8,1,,,,,,,,,,,,,,,,
,,,,,,,stim/VC_05.wav,5fac89c216b5ae293eb9cfd9,2020-12-26_09h03.06.472,2_afc_fren,2020.2.3,Win32,60,,,right,1.589815,,,,,,,,1,4,15,4,1,,,,,,,,,,,,,,,,
,,,,,,,stim/VC_07.wav,5fac89c216b5ae293eb9cfd9,2020-12-26_09h03.06.472,2_afc_fren,2020.2.3,Win32,60,,,right,0.757715,,,,,,,,1,5,16,6,1,,,,,,,,,,,,,,,,
,,,,,,,stim/VC_06.wav,5fac89c216b5ae293eb9cfd9,2020-12-26_09h03.06.472,2_afc_fren,2020.2.3,Win32,60,,,right,1.14629,,,,,,,,1,6,17,5,1,,,,,,,,,,,,,,,,
,,,,,,,stim/VC_08.wav,5fac89c216b5ae293eb9cfd9,2020-12-26_09h03.06.472,2_afc_fren,2020.2.3,Win32,60,,,right,0.66033,,,,,,,,1,7,18,7,1,,,,,,,,,,,,,,,,
,,,,,,,stim/VC_02.wav,5fac89c216b5ae293eb9cfd9,2020-12-26_09h03.06.472,2_afc_fren,2020.2.3,Win32,60,,,left,0.55232,,,,,,,,1,8,19,1,1,,,,,,,,,,,,,,,,
,,,,,,,stim/VC_11.wav,5fac89c216b5ae293eb9cfd9,2020-12-26_09h03.06.472,2_afc_fren,2020.2.3,Win32,60,,,right,0.938315,,,,,,,,1,9,20,10,1,,,,,,,,,,,,,,,,
,,,,,,,stim/VC_03.wav,5fac89c216b5ae293eb9cfd9,2020-12-26_09h03.06.472,2_afc_fren,2020.2.3,Win32,60,,,left,0.648775,,,,,,,,1,10,21,2,1,,,,,,,,,,,,,,,,
,,,,,,,stim2/pa+20.wav,5fac89c216b5ae293eb9cfd9,2020-12-26_09h03.06.472,2_afc_fren,2020.2.3,Win32,60,,,,,,,,,,,,,,,,,left,4.00342,0,0,0,3,1,,,,,,,,,
,,,,,,,stim2/pa+45.wav,5fac89c216b5ae293eb9cfd9,2020-12-26_09h03.06.472,2_afc_fren,2020.2.3,Win32,60,,,,,,,,,,,,,,,,,left,4.318515,0,1,1,8,1,,,,,,,,,
,,,,,,,stim2/pa+15.wav,5fac89c216b5ae293eb9cfd9,2020-12-26_09h03.06.472,2_afc_fren,2020.2.3,Win32,60,,,,,,,,,,,,,,,,,right,0.63372,0,2,2,2,1,,,,,,,,,
,,,,,,,stim2/pa+30.wav,5fac89c216b5ae293eb9cfd9,2020-12-26_09h03.06.472,2_afc_fren,2020.2.3,Win32,60,,,,,,,,,,,,,,,,,left,0.495085,0,3,3,5,1,,,,,,,,,
,,,,,,,stim2/pa+05.wav,5fac89c216b5ae293eb9cfd9,2020-12-26_09h03.06.472,2_afc_fren,2020.2.3,Win32,60,,,,,,,,,,,,,,,,,left,0.767985,0,4,4,0,1,,,,,,,,,
,,,,,,,stim2/pa+10.wav,5fac89c216b5ae293eb9cfd9,2020-12-26_09h03.06.472,2_afc_fren,2020.2.3,Win32,60,,,,,,,,,,,,,,,,,left,1.09749,0,5,5,1,1,,,,,,,,,
,,,,,,,stim2/pa+35.wav,5fac89c216b5ae293eb9cfd9,2020-12-26_09h03.06.472,2_afc_fren,2020.2.3,Win32,60,,,,,,,,,,,,,,,,,right,1.05303,0,6,6,6,1,,,,,,,,,
,,,,,,,stim2/pa+50.wav,5fac89c216b5ae293eb9cfd9,2020-12-26_09h03.06.472,2_afc_fren,2020.2.3,Win32,60,,,,,,,,,,,,,,,,,left,0.675795,0,7,7,9,1,,,,,,,,,
,,,,,,,stim2/pa-25.wav,5fac89c216b5ae293eb9cfd9,2020-12-26_09h03.06.472,2_afc_fren,2020.2.3,Win32,60,,,,,,,,,,,,,,,,,right,0.648505,0,8,8,14,1,,,,,,,,,
,,,,,,,stim2/pa-30.wav,5fac89c216b5ae293eb9cfd9,2020-12-26_09h03.06.472,2_afc_fren,2020.2.3,Win32,60,,,,,,,,,,,,,,,,,right,0.540805,0,9,9,15,1,,,,,,,,,
,,,,,,,stim2/pa+40.wav,5fac89c216b5ae293eb9cfd9,2020-12-26_09h03.06.472,2_afc_fren,2020.2.3,Win32,60,,,,,,,,,,,,,,,,,right,0.83782,0,10,10,7,1,,,,,,,,,
,,,,,,,stim2/pa-15.wav,5fac89c216b5ae293eb9cfd9,2020-12-26_09h03.06.472,2_afc_fren,2020.2.3,Win32,60,,,,,,,,,,,,,,,,,right,3.428055,0,11,11,12,1,,,,,,,,,
,,,,,,,stim2/pa-35.wav,5fac89c216b5ae293eb9cfd9,2020-12-26_09h03.06.472,2_afc_fren,2020.2.3,Win32,60,,,,,,,,,,,,,,,,,right,2.234335,0,12,12,16,1,,,,,,,,,
,,,,,,,stim2/pa+25.wav,5fac89c216b5ae293eb9cfd9,2020-12-26_09h03.06.472,2_afc_fren,2020.2.3,Win32,60,,,,,,,,,,,,,,,,,left,0.64813,0,13,13,4,1,,,,,,,,,
,,,,,,,stim2/pa-20.wav,5fac89c216b5ae293eb9cfd9,2020-12-26_09h03.06.472,2_afc_fren,2020.2.3,Win32,60,,,,,,,,,,,,,,,,,right,0.7476,0,14,14,13,1,,,,,,,,,
,,,,,,,stim2/pa-10.wav,5fac89c216b5ae293eb9cfd9,2020-12-26_09h03.06.472,2_afc_fren,2020.2.3,Win32,60,,,,,,,,,,,,,,,,,right,1.85236,0,15,15,11,1,,,,,,,,,
,,,,,,,stim2/pa-05.wav,5fac89c216b5ae293eb9cfd9,2020-12-26_09h03.06.472,2_afc_fren,2020.2.3,Win32,60,,,,,,,,,,,,,,,,,left,0.55469,0,16,16,10,1,,,,,,,,,
,,,,,,,stim2/pa-30.wav,5fac89c216b5ae293eb9cfd9,2020-12-26_09h03.06.472,2_afc_fren,2020.2.3,Win32,60,,,,,,,,,,,,,,,,,right,0.83946,1,0,17,15,1,,,,,,,,,
,,,,,,,stim2/pa+15.wav,5fac89c216b5ae293eb9cfd9,2020-12-26_09h03.06.472,2_afc_fren,2020.2.3,Win32,60,,,,,,,,,,,,,,,,,left,0.499845,1,1,18,2,1,,,,,,,,,
,,,,,,,stim2/pa+35.wav,5fac89c216b5ae293eb9cfd9,2020-12-26_09h03.06.472,2_afc_fren,2020.2.3,Win32,60,,,,,,,,,,,,,,,,,left,0.520175,1,2,19,6,1,,,,,,,,,
,,,,,,,stim2/pa+05.wav,5fac89c216b5ae293eb9cfd9,2020-12-26_09h03.06.472,2_afc_fren,2020.2.3,Win32,60,,,,,,,,,,,,,,,,,left,0.489875,1,3,20,0,1,,,,,,,,,
,,,,,,,stim2/pa+45.wav,5fac89c216b5ae293eb9cfd9,2020-12-26_09h03.06.472,2_afc_fren,2020.2.3,Win32,60,,,,,,,,,,,,,,,,,left,0.488095,1,4,21,8,1,,,,,,,,,
,,,,,,,stim2/pa+25.wav,5fac89c216b5ae293eb9cfd9,2020-12-26_09h03.06.472,2_afc_fren,2020.2.3,Win32,60,,,,,,,,,,,,,,,,,left,0.61861,1,5,22,4,1,,,,,,,,,
,,,,,,,stim2/pa-10.wav,5fac89c216b5ae293eb9cfd9,2020-12-26_09h03.06.472,2_afc_fren,2020.2.3,Win32,60,,,,,,,,,,,,,,,,,right,0.53948,1,6,23,11,1,,,,,,,,,
,,,,,,,stim2/pa+20.wav,5fac89c216b5ae293eb9cfd9,2020-12-26_09h03.06.472,2_afc_fren,2020.2.3,Win32,60,,,,,,,,,,,,,,,,,left,1.295415,1,7,24,3,1,,,,,,,,,
,,,,,,,stim2/pa-35.wav,5fac89c216b5ae293eb9cfd9,2020-12-26_09h03.06.472,2_afc_fren,2020.2.3,Win32,60,,,,,,,,,,,,,,,,,right,0.60911,1,8,25,16,1,,,,,,,,,
,,,,,,,stim2/pa-20.wav,5fac89c216b5ae293eb9cfd9,2020-12-26_09h03.06.472,2_afc_fren,2020.2.3,Win32,60,,,,,,,,,,,,,,,,,right,0.68665,1,9,26,13,1,,,,,,,,,
,,,,,,,stim2/pa+50.wav,5fac89c216b5ae293eb9cfd9,2020-12-26_09h03.06.472,2_afc_fren,2020.2.3,Win32,60,,,,,,,,,,,,,,,,,left,0.732855,1,10,27,9,1,,,,,,,,,
,,,,,,,stim2/pa+30.wav,5fac89c216b5ae293eb9cfd9,2020-12-26_09h03.06.472,2_afc_fren,2020.2.3,Win32,60,,,,,,,,,,,,,,,,,right,0.60175,1,11,28,5,1,,,,,,,,,
,,,,,,,stim2/pa-05.wav,5fac89c216b5ae293eb9cfd9,2020-12-26_09h03.06.472,2_afc_fren,2020.2.3,Win32,60,,,,,,,,,,,,,,,,,left,0.81998,1,12,29,10,1,,,,,,,,,
,,,,,,,stim2/pa+10.wav,5fac89c216b5ae293eb9cfd9,2020-12-26_09h03.06.472,2_afc_fren,2020.2.3,Win32,60,,,,,,,,,,,,,,,,,left,0.819935,1,13,30,1,1,,,,,,,,,
,,,,,,,stim2/pa-25.wav,5fac89c216b5ae293eb9cfd9,2020-12-26_09h03.06.472,2_afc_fren,2020.2.3,Win32,60,,,,,,,,,,,,,,,,,right,0.66866,1,14,31,14,1,,,,,,,,,
,,,,,,,stim2/pa+40.wav,5fac89c216b5ae293eb9cfd9,2020-12-26_09h03.06.472,2_afc_fren,2020.2.3,Win32,60,,,,,,,,,,,,,,,,,right,0.820135,1,15,32,7,1,,,,,,,,,
,,,,,,,stim2/pa-15.wav,5fac89c216b5ae293eb9cfd9,2020-12-26_09h03.06.472,2_afc_fren,2020.2.3,Win32,60,,,,,,,,,,,,,,,,,right,0.635075,1,16,33,12,1,,,,,,,,,
,,,,,,,stim2/pa+15.wav,5fac89c216b5ae293eb9cfd9,2020-12-26_09h03.06.472,2_afc_fren,2020.2.3,Win32,60,,,,,,,,,,,,,,,,,left,1.578915,2,0,34,2,1,,,,,,,,,
,,,,,,,stim2/pa+05.wav,5fac89c216b5ae293eb9cfd9,2020-12-26_09h03.06.472,2_afc_fren,2020.2.3,Win32,60,,,,,,,,,,,,,,,,,left,1.807585,2,1,35,0,1,,,,,,,,,
,,,,,,,stim2/pa-15.wav,5fac89c216b5ae293eb9cfd9,2020-12-26_09h03.06.472,2_afc_fren,2020.2.3,Win32,60,,,,,,,,,,,,,,,,,right,0.75803,2,2,36,12,1,,,,,,,,,
,,,,,,,stim2/pa+40.wav,5fac89c216b5ae293eb9cfd9,2020-12-26_09h03.06.472,2_afc_fren,2020.2.3,Win32,60,,,,,,,,,,,,,,,,,right,0.63926,2,3,37,7,1,,,,,,,,,
,,,,,,,stim2/pa+25.wav,5fac89c216b5ae293eb9cfd9,2020-12-26_09h03.06.472,2_afc_fren,2020.2.3,Win32,60,,,,,,,,,,,,,,,,,right,0.738405,2,4,38,4,1,,,,,,,,,
,,,,,,,stim2/pa+50.wav,5fac89c216b5ae293eb9cfd9,2020-12-26_09h03.06.472,2_afc_fren,2020.2.3,Win32,60,,,,,,,,,,,,,,,,,right,0.905905,2,5,39,9,1,,,,,,,,,
,,,,,,,stim2/pa-30.wav,5fac89c216b5ae293eb9cfd9,2020-12-26_09h03.06.472,2_afc_fren,2020.2.3,Win32,60,,,,,,,,,,,,,,,,,right,1.192425,2,6,40,15,1,,,,,,,,,
,,,,,,,stim2/pa+45.wav,5fac89c216b5ae293eb9cfd9,2020-12-26_09h03.06.472,2_afc_fren,2020.2.3,Win32,60,,,,,,,,,,,,,,,,,right,0.91913,2,7,41,8,1,,,,,,,,,
,,,,,,,stim2/pa+35.wav,5fac89c216b5ae293eb9cfd9,2020-12-26_09h03.06.472,2_afc_fren,2020.2.3,Win32,60,,,,,,,,,,,,,,,,,left,0.848555,2,8,42,6,1,,,,,,,,,
,,,,,,,stim2/pa+20.wav,5fac89c216b5ae293eb9cfd9,2020-12-26_09h03.06.472,2_afc_fren,2020.2.3,Win32,60,,,,,,,,,,,,,,,,,left,0.56739,2,9,43,3,1,,,,,,,,,
,,,,,,,stim2/pa-35.wav,5fac89c216b5ae293eb9cfd9,2020-12-26_09h03.06.472,2_afc_fren,2020.2.3,Win32,60,,,,,,,,,,,,,,,,,right,0.67073,2,10,44,16,1,,,,,,,,,
,,,,,,,stim2/pa-05.wav,5fac89c216b5ae293eb9cfd9,2020-12-26_09h03.06.472,2_afc_fren,2020.2.3,Win32,60,,,,,,,,,,,,,,,,,left,0.8732,2,11,45,10,1,,,,,,,,,
,,,,,,,stim2/pa+10.wav,5fac89c216b5ae293eb9cfd9,2020-12-26_09h03.06.472,2_afc_fren,2020.2.3,Win32,60,,,,,,,,,,,,,,,,,left,0.814065,2,12,46,1,1,,,,,,,,,
,,,,,,,stim2/pa-10.wav,5fac89c216b5ae293eb9cfd9,2020-12-26_09h03.06.472,2_afc_fren,2020.2.3,Win32,60,,,,,,,,,,,,,,,,,left,1.968815,2,13,47,11,1,,,,,,,,,
,,,,,,,stim2/pa-20.wav,5fac89c216b5ae293eb9cfd9,2020-12-26_09h03.06.472,2_afc_fren,2020.2.3,Win32,60,,,,,,,,,,,,,,,,,right,0.80603,2,14,48,13,1,,,,,,,,,
,,,,,,,stim2/pa+30.wav,5fac89c216b5ae293eb9cfd9,2020-12-26_09h03.06.472,2_afc_fren,2020.2.3,Win32,60,,,,,,,,,,,,,,,,,right,0.545305,2,15,49,5,1,,,,,,,,,
,,,,,,,stim2/pa-25.wav,5fac89c216b5ae293eb9cfd9,2020-12-26_09h03.06.472,2_afc_fren,2020.2.3,Win32,60,,,,,,,,,,,,,,,,,right,0.478895,2,16,50,14,1,,,,,,,,,
,,,,,,,stim2/pa-35.wav,5fac89c216b5ae293eb9cfd9,2020-12-26_09h03.06.472,2_afc_fren,2020.2.3,Win32,60,,,,,,,,,,,,,,,,,right,1.133265,,,,,,z,3.076665,0,0,0,16,1,,
,,,,,,,stim2/pa+15.wav,5fac89c216b5ae293eb9cfd9,2020-12-26_09h03.06.472,2_afc_fren,2020.2.3,Win32,60,,,,,,,,,,,,,,,,,left,0.6546,,,,,,,,0,1,1,2,1,,
,,,,,,,stim2/pa-05.wav,5fac89c216b5ae293eb9cfd9,2020-12-26_09h03.06.472,2_afc_fren,2020.2.3,Win32,60,,,,,,,,,,,,,,,,,right,0.73605,,,,,,,,0,2,2,10,1,,
,,,,,,,stim2/pa+20.wav,5fac89c216b5ae293eb9cfd9,2020-12-26_09h03.06.472,2_afc_fren,2020.2.3,Win32,60,,,,,,,,,,,,,,,,,left,0.744495,,,,,,,,0,3,3,3,1,,
,,,,,,,stim2/pa+50.wav,5fac89c216b5ae293eb9cfd9,2020-12-26_09h03.06.472,2_afc_fren,2020.2.3,Win32,60,,,,,,,,,,,,,,,,,right,0.753155,,,,,,,,0,4,4,9,1,,
,,,,,,,stim2/pa-30.wav,5fac89c216b5ae293eb9cfd9,2020-12-26_09h03.06.472,2_afc_fren,2020.2.3,Win32,60,,,,,,,,,,,,,,,,,right,0.68382,,,,,,,,0,5,5,15,1,,
,,,,,,,stim2/pa-15.wav,5fac89c216b5ae293eb9cfd9,2020-12-26_09h03.06.472,2_afc_fren,2020.2.3,Win32,60,,,,,,,,,,,,,,,,,right,0.55579,,,,,,,,0,6,6,12,1,,
,,,,,,,stim2/pa+30.wav,5fac89c216b5ae293eb9cfd9,2020-12-26_09h03.06.472,2_afc_fren,2020.2.3,Win32,60,,,,,,,,,,,,,,,,,right,0.702175,,,,,,,,0,7,7,5,1,,
,,,,,,,stim2/pa+05.wav,5fac89c216b5ae293eb9cfd9,2020-12-26_09h03.06.472,2_afc_fren,2020.2.3,Win32,60,,,,,,,,,,,,,,,,,left,0.522965,,,,,,,,0,8,8,0,1,,
,,,,,,,stim2/pa+40.wav,5fac89c216b5ae293eb9cfd9,2020-12-26_09h03.06.472,2_afc_fren,2020.2.3,Win32,60,,,,,,,,,,,,,,,,,right,0.885265,,,,,,,,0,9,9,7,1,,
,,,,,,,stim2/pa-25.wav,5fac89c216b5ae293eb9cfd9,2020-12-26_09h03.06.472,2_afc_fren,2020.2.3,Win32,60,,,,,,,,,,,,,,,,,right,0.722855,,,,,,,,0,10,10,14,1,,
,,,,,,,stim2/pa+10.wav,5fac89c216b5ae293eb9cfd9,2020-12-26_09h03.06.472,2_afc_fren,2020.2.3,Win32,60,,,,,,,,,,,,,,,,,left,0.52828,,,,,,,,0,11,11,1,1,,
,,,,,,,stim2/pa-20.wav,5fac89c216b5ae293eb9cfd9,2020-12-26_09h03.06.472,2_afc_fren,2020.2.3,Win32,60,,,,,,,,,,,,,,,,,right,0.912785,,,,,,,,0,12,12,13,1,,
,,,,,,,stim2/pa+45.wav,5fac89c216b5ae293eb9cfd9,2020-12-26_09h03.06.472,2_afc_fren,2020.2.3,Win32,60,,,,,,,,,,,,,,,,,left,0.57126,,,,,,,,0,13,13,8,1,,
,,,,,,,stim2/pa+25.wav,5fac89c216b5ae293eb9cfd9,2020-12-26_09h03.06.472,2_afc_fren,2020.2.3,Win32,60,,,,,,,,,,,,,,,,,left,0.55081,,,,,,,,0,14,14,4,1,,
,,,,,,,stim2/pa+35.wav,5fac89c216b5ae293eb9cfd9,2020-12-26_09h03.06.472,2_afc_fren,2020.2.3,Win32,60,,,,,,,,,,,,,,,,,left,0.59012,,,,,,,,0,15,15,6,1,,
,,,,,,,stim2/pa-10.wav,5fac89c216b5ae293eb9cfd9,2020-12-26_09h03.06.472,2_afc_fren,2020.2.3,Win32,60,,,,,,,,,,,,,,,,,right,0.555665,,,,,,,,0,16,16,11,1,,
,,,,,,,stim2/pa+25.wav,5fac89c216b5ae293eb9cfd9,2020-12-26_09h03.06.472,2_afc_fren,2020.2.3,Win32,60,,,,,,,,,,,,,,,,,left,0.640645,,,,,,,,1,0,17,4,1,,
,,,,,,,stim2/pa+35.wav,5fac89c216b5ae293eb9cfd9,2020-12-26_09h03.06.472,2_afc_fren,2020.2.3,Win32,60,,,,,,,,,,,,,,,,,right,1.57452,,,,,,,,1,1,18,6,1,,
,,,,,,,stim2/pa+45.wav,5fac89c216b5ae293eb9cfd9,2020-12-26_09h03.06.472,2_afc_fren,2020.2.3,Win32,60,,,,,,,,,,,,,,,,,right,1.14408,,,,,,,,1,2,19,8,1,,
,,,,,,,stim2/pa-10.wav,5fac89c216b5ae293eb9cfd9,2020-12-26_09h03.06.472,2_afc_fren,2020.2.3,Win32,60,,,,,,,,,,,,,,,,,right,1.07108,,,,,,,,1,3,20,11,1,,
,,,,,,,stim2/pa+20.wav,5fac89c216b5ae293eb9cfd9,2020-12-26_09h03.06.472,2_afc_fren,2020.2.3,Win32,60,,,,,,,,,,,,,,,,,left,0.53528,,,,,,,,1,4,21,3,1,,
,,,,,,,stim2/pa+05.wav,5fac89c216b5ae293eb9cfd9,2020-12-26_09h03.06.472,2_afc_fren,2020.2.3,Win32,60,,,,,,,,,,,,,,,,,left,0.490045,,,,,,,,1,5,22,0,1,,
,,,,,,,stim2/pa+10.wav,5fac89c216b5ae293eb9cfd9,2020-12-26_09h03.06.472,2_afc_fren,2020.2.3,Win32,60,,,,,,,,,,,,,,,,,left,0.52532,,,,,,,,1,6,23,1,1,,
,,,,,,,stim2/pa+50.wav,5fac89c216b5ae293eb9cfd9,2020-12-26_09h03.06.472,2_afc_fren,2020.2.3,Win32,60,,,,,,,,,,,,,,,,,left,1.81748,,,,,,,,1,7,24,9,1,,
,,,,,,,stim2/pa+30.wav,5fac89c216b5ae293eb9cfd9,2020-12-26_09h03.06.472,2_afc_fren,2020.2.3,Win32,60,,,,,,,,,,,,,,,,,left,1.978525,,,,,,,,1,8,25,5,1,,
,,,,,,,stim2/pa+15.wav,5fac89c216b5ae293eb9cfd9,2020-12-26_09h03.06.472,2_afc_fren,2020.2.3,Win32,60,,,,,,,,,,,,,,,,,left,0.96314,,,,,,,,1,9,26,2,1,,
,,,,,,,stim2/pa-20.wav,5fac89c216b5ae293eb9cfd9,2020-12-26_09h03.06.472,2_afc_fren,2020.2.3,Win32,60,,,,,,,,,,,,,,,,,right,0.528755,,,,,,,,1,10,27,13,1,,
,,,,,,,stim2/pa-05.wav,5fac89c216b5ae293eb9cfd9,2020-12-26_09h03.06.472,2_afc_fren,2020.2.3,Win32,60,,,,,,,,,,,,,,,,,right,0.55092,,,,,,,,1,11,28,10,1,,
,,,,,,,stim2/pa-25.wav,5fac89c216b5ae293eb9cfd9,2020-12-26_09h03.06.472,2_afc_fren,2020.2.3,Win32,60,,,,,,,,,,,,,,,,,right,0.475935,,,,,,,,1,12,29,14,1,,
,,,,,,,stim2/pa-30.wav,5fac89c216b5ae293eb9cfd9,2020-12-26_09h03.06.472,2_afc_fren,2020.2.3,Win32,60,,,,,,,,,,,,,,,,,right,0.537525,,,,,,,,1,13,30,15,1,,
,,,,,,,stim2/pa-35.wav,5fac89c216b5ae293eb9cfd9,2020-12-26_09h03.06.472,2_afc_fren,2020.2.3,Win32,60,,,,,,,,,,,,,,,,,right,0.594345,,,,,,,,1,14,31,16,1,,
,,,,,,,stim2/pa-15.wav,5fac89c216b5ae293eb9cfd9,2020-12-26_09h03.06.472,2_afc_fren,2020.2.3,Win32,60,,,,,,,,,,,,,,,,,right,0.59026,,,,,,,,1,15,32,12,1,,
,,,,,,,stim2/pa+40.wav,5fac89c216b5ae293eb9cfd9,2020-12-26_09h03.06.472,2_afc_fren,2020.2.3,Win32,60,,,,,,,,,,,,,,,,,right,1.85998,,,,,,,,1,16,33,7,1,,
,,,,,,,,5fac89c216b5ae293eb9cfd9,2020-12-26_09h03.06.472,2_afc_fren,2020.2.3,Win32,60,,,,,,,,,,,,,,,,,,,,,,,,,,,,,,,space,20.92067
