resp.keys,resp.rt,trials.thisRepN,trials.thisTrialN,trials.thisN,trials.thisIndex,trials.ran,stimuli,participant,date,expName,psychopyVersion,OS,frameRate,gotResponse.keys,gotResponse.rt,resp_2.keys,resp_2.rt,trials_2.thisRepN,trials_2.thisTrialN,trials_2.thisN,trials_2.thisIndex,trials_2.ran,key_resp_3.keys,key_resp_3.rt,trials_4.thisRepN,trials_4.thisTrialN,trials_4.thisN,trials_4.thisIndex,trials_4.ran,resp_3.keys,resp_3.rt,trials_3.thisRepN,trials_3.thisTrialN,trials_3.thisN,trials_3.thisIndex,trials_3.ran,key_resp_2.keys,key_resp_2.rt,trials_5.thisRepN,trials_5.thisTrialN,trials_5.thisN,trials_5.thisIndex,trials_5.ran,key_resp.keys,key_resp.rt
left,8.520565,0,0,0,1,1,stim/VC_11.wav,5fe92ffe2c2ee638b14a6d29,2021-01-03_17h49.39.406,Hungarian_step4,2020.2.3,MacIntel,60,,,,,,,,,,,,,,,,,,,,,,,,,,,,,,,,
left,10.54279,0,1,1,0,1,stim/VC_01.wav,5fe92ffe2c2ee638b14a6d29,2021-01-03_17h49.39.406,Hungarian_step4,2020.2.3,MacIntel,60,,,,,,,,,,,,,,,,,,,,,,,,,,,,,,,,
,,,,,,,stim/VC_09.wav,5fe92ffe2c2ee638b14a6d29,2021-01-03_17h49.39.406,Hungarian_step4,2020.2.3,MacIntel,60,space,41.717955,right,1.874105,0,0,0,8,1,,,,,,,,,,,,,,,,,,,,,,,
,,,,,,,stim/VC_02.wav,5fe92ffe2c2ee638b14a6d29,2021-01-03_17h49.39.406,Hungarian_step4,2020.2.3,MacIntel,60,,,left,0.84079,0,1,1,1,1,,,,,,,,,,,,,,,,,,,,,,,
,,,,,,,stim/VC_05.wav,5fe92ffe2c2ee638b14a6d29,2021-01-03_17h49.39.406,Hungarian_step4,2020.2.3,MacIntel,60,,,right,1.072855,0,2,2,4,1,,,,,,,,,,,,,,,,,,,,,,,
,,,,,,,stim/VC_08.wav,5fe92ffe2c2ee638b14a6d29,2021-01-03_17h49.39.406,Hungarian_step4,2020.2.3,MacIntel,60,,,right,1.179555,0,3,3,7,1,,,,,,,,,,,,,,,,,,,,,,,
,,,,,,,stim/VC_04.wav,5fe92ffe2c2ee638b14a6d29,2021-01-03_17h49.39.406,Hungarian_step4,2020.2.3,MacIntel,60,,,left,4.375625,0,4,4,3,1,,,,,,,,,,,,,,,,,,,,,,,
,,,,,,,stim/VC_01.wav,5fe92ffe2c2ee638b14a6d29,2021-01-03_17h49.39.406,Hungarian_step4,2020.2.3,MacIntel,60,,,right,2.48056,0,5,5,0,1,,,,,,,,,,,,,,,,,,,,,,,
,,,,,,,stim/VC_07.wav,5fe92ffe2c2ee638b14a6d29,2021-01-03_17h49.39.406,Hungarian_step4,2020.2.3,MacIntel,60,,,left,1.042025,0,6,6,6,1,,,,,,,,,,,,,,,,,,,,,,,
,,,,,,,stim/VC_11.wav,5fe92ffe2c2ee638b14a6d29,2021-01-03_17h49.39.406,Hungarian_step4,2020.2.3,MacIntel,60,,,right,103.500915,0,7,7,10,1,,,,,,,,,,,,,,,,,,,,,,,
,,,,,,,stim/VC_10.wav,5fe92ffe2c2ee638b14a6d29,2021-01-03_17h49.39.406,Hungarian_step4,2020.2.3,MacIntel,60,,,right,0.85455,0,8,8,9,1,,,,,,,,,,,,,,,,,,,,,,,
,,,,,,,stim/VC_06.wav,5fe92ffe2c2ee638b14a6d29,2021-01-03_17h49.39.406,Hungarian_step4,2020.2.3,MacIntel,60,,,right,1.00049,0,9,9,5,1,,,,,,,,,,,,,,,,,,,,,,,
,,,,,,,stim/VC_03.wav,5fe92ffe2c2ee638b14a6d29,2021-01-03_17h49.39.406,Hungarian_step4,2020.2.3,MacIntel,60,,,left,0.677715,0,10,10,2,1,,,,,,,,,,,,,,,,,,,,,,,
,,,,,,,stim/VC_09.wav,5fe92ffe2c2ee638b14a6d29,2021-01-03_17h49.39.406,Hungarian_step4,2020.2.3,MacIntel,60,,,right,0.70917,1,0,11,8,1,,,,,,,,,,,,,,,,,,,,,,,
,,,,,,,stim/VC_02.wav,5fe92ffe2c2ee638b14a6d29,2021-01-03_17h49.39.406,Hungarian_step4,2020.2.3,MacIntel,60,,,left,0.6094,1,1,12,1,1,,,,,,,,,,,,,,,,,,,,,,,
,,,,,,,stim/VC_04.wav,5fe92ffe2c2ee638b14a6d29,2021-01-03_17h49.39.406,Hungarian_step4,2020.2.3,MacIntel,60,,,left,0.882475,1,2,13,3,1,,,,,,,,,,,,,,,,,,,,,,,
,,,,,,,stim/VC_07.wav,5fe92ffe2c2ee638b14a6d29,2021-01-03_17h49.39.406,Hungarian_step4,2020.2.3,MacIntel,60,,,right,0.83259,1,3,14,6,1,,,,,,,,,,,,,,,,,,,,,,,
,,,,,,,stim/VC_10.wav,5fe92ffe2c2ee638b14a6d29,2021-01-03_17h49.39.406,Hungarian_step4,2020.2.3,MacIntel,60,,,right,0.93228,1,4,15,9,1,,,,,,,,,,,,,,,,,,,,,,,
,,,,,,,stim/VC_05.wav,5fe92ffe2c2ee638b14a6d29,2021-01-03_17h49.39.406,Hungarian_step4,2020.2.3,MacIntel,60,,,left,0.96243,1,5,16,4,1,,,,,,,,,,,,,,,,,,,,,,,
,,,,,,,stim/VC_03.wav,5fe92ffe2c2ee638b14a6d29,2021-01-03_17h49.39.406,Hungarian_step4,2020.2.3,MacIntel,60,,,left,0.99479,1,6,17,2,1,,,,,,,,,,,,,,,,,,,,,,,
,,,,,,,stim/VC_08.wav,5fe92ffe2c2ee638b14a6d29,2021-01-03_17h49.39.406,Hungarian_step4,2020.2.3,MacIntel,60,,,right,0.63987,1,7,18,7,1,,,,,,,,,,,,,,,,,,,,,,,
,,,,,,,stim/VC_11.wav,5fe92ffe2c2ee638b14a6d29,2021-01-03_17h49.39.406,Hungarian_step4,2020.2.3,MacIntel,60,,,right,0.94368,1,8,19,10,1,,,,,,,,,,,,,,,,,,,,,,,
,,,,,,,stim/VC_06.wav,5fe92ffe2c2ee638b14a6d29,2021-01-03_17h49.39.406,Hungarian_step4,2020.2.3,MacIntel,60,,,left,1.05851,1,9,20,5,1,,,,,,,,,,,,,,,,,,,,,,,
,,,,,,,stim/VC_01.wav,5fe92ffe2c2ee638b14a6d29,2021-01-03_17h49.39.406,Hungarian_step4,2020.2.3,MacIntel,60,,,left,0.83851,1,10,21,0,1,,,,,,,,,,,,,,,,,,,,,,,
,,,,,,,stim/VC_02.wav,5fe92ffe2c2ee638b14a6d29,2021-01-03_17h49.39.406,Hungarian_step4,2020.2.3,MacIntel,60,,,left,0.717295,2,0,22,1,1,,,,,,,,,,,,,,,,,,,,,,,
,,,,,,,stim/VC_08.wav,5fe92ffe2c2ee638b14a6d29,2021-01-03_17h49.39.406,Hungarian_step4,2020.2.3,MacIntel,60,,,right,0.86132,2,1,23,7,1,,,,,,,,,,,,,,,,,,,,,,,
,,,,,,,stim/VC_06.wav,5fe92ffe2c2ee638b14a6d29,2021-01-03_17h49.39.406,Hungarian_step4,2020.2.3,MacIntel,60,,,left,1.259365,2,2,24,5,1,,,,,,,,,,,,,,,,,,,,,,,
,,,,,,,stim/VC_07.wav,5fe92ffe2c2ee638b14a6d29,2021-01-03_17h49.39.406,Hungarian_step4,2020.2.3,MacIntel,60,,,right,0.810495,2,3,25,6,1,,,,,,,,,,,,,,,,,,,,,,,
,,,,,,,stim/VC_01.wav,5fe92ffe2c2ee638b14a6d29,2021-01-03_17h49.39.406,Hungarian_step4,2020.2.3,MacIntel,60,,,left,0.686925,2,4,26,0,1,,,,,,,,,,,,,,,,,,,,,,,
,,,,,,,stim/VC_05.wav,5fe92ffe2c2ee638b14a6d29,2021-01-03_17h49.39.406,Hungarian_step4,2020.2.3,MacIntel,60,,,right,0.77573,2,5,27,4,1,,,,,,,,,,,,,,,,,,,,,,,
,,,,,,,stim/VC_11.wav,5fe92ffe2c2ee638b14a6d29,2021-01-03_17h49.39.406,Hungarian_step4,2020.2.3,MacIntel,60,,,right,0.80666,2,6,28,10,1,,,,,,,,,,,,,,,,,,,,,,,
,,,,,,,stim/VC_03.wav,5fe92ffe2c2ee638b14a6d29,2021-01-03_17h49.39.406,Hungarian_step4,2020.2.3,MacIntel,60,,,left,0.713115,2,7,29,2,1,,,,,,,,,,,,,,,,,,,,,,,
,,,,,,,stim/VC_10.wav,5fe92ffe2c2ee638b14a6d29,2021-01-03_17h49.39.406,Hungarian_step4,2020.2.3,MacIntel,60,,,right,0.722545,2,8,30,9,1,,,,,,,,,,,,,,,,,,,,,,,
,,,,,,,stim/VC_09.wav,5fe92ffe2c2ee638b14a6d29,2021-01-03_17h49.39.406,Hungarian_step4,2020.2.3,MacIntel,60,,,right,0.755325,2,9,31,8,1,,,,,,,,,,,,,,,,,,,,,,,
,,,,,,,stim/VC_04.wav,5fe92ffe2c2ee638b14a6d29,2021-01-03_17h49.39.406,Hungarian_step4,2020.2.3,MacIntel,60,,,left,0.80503,2,10,32,3,1,,,,,,,,,,,,,,,,,,,,,,,
,,,,,,,stim/VC_04.wav,5fe92ffe2c2ee638b14a6d29,2021-01-03_17h49.39.406,Hungarian_step4,2020.2.3,MacIntel,60,,,left,0.921335,,,,,,3,3.83061,0,0,0,3,1,,,,,,,,,,,,,,,,
,,,,,,,stim/VC_01.wav,5fe92ffe2c2ee638b14a6d29,2021-01-03_17h49.39.406,Hungarian_step4,2020.2.3,MacIntel,60,,,left,0.86154,,,,,,,,0,1,1,0,1,,,,,,,,,,,,,,,,
,,,,,,,stim/VC_05.wav,5fe92ffe2c2ee638b14a6d29,2021-01-03_17h49.39.406,Hungarian_step4,2020.2.3,MacIntel,60,,,right,0.68055,,,,,,,,0,2,2,4,1,,,,,,,,,,,,,,,,
,,,,,,,stim/VC_10.wav,5fe92ffe2c2ee638b14a6d29,2021-01-03_17h49.39.406,Hungarian_step4,2020.2.3,MacIntel,60,,,right,0.946765,,,,,,,,0,3,3,9,1,,,,,,,,,,,,,,,,
,,,,,,,stim/VC_08.wav,5fe92ffe2c2ee638b14a6d29,2021-01-03_17h49.39.406,Hungarian_step4,2020.2.3,MacIntel,60,,,right,0.788145,,,,,,,,0,4,4,7,1,,,,,,,,,,,,,,,,
,,,,,,,stim/VC_07.wav,5fe92ffe2c2ee638b14a6d29,2021-01-03_17h49.39.406,Hungarian_step4,2020.2.3,MacIntel,60,,,right,0.776405,,,,,,,,0,5,5,6,1,,,,,,,,,,,,,,,,
,,,,,,,stim/VC_11.wav,5fe92ffe2c2ee638b14a6d29,2021-01-03_17h49.39.406,Hungarian_step4,2020.2.3,MacIntel,60,,,right,0.925275,,,,,,,,0,6,6,10,1,,,,,,,,,,,,,,,,
,,,,,,,stim/VC_03.wav,5fe92ffe2c2ee638b14a6d29,2021-01-03_17h49.39.406,Hungarian_step4,2020.2.3,MacIntel,60,,,left,0.603755,,,,,,,,0,7,7,2,1,,,,,,,,,,,,,,,,
,,,,,,,stim/VC_02.wav,5fe92ffe2c2ee638b14a6d29,2021-01-03_17h49.39.406,Hungarian_step4,2020.2.3,MacIntel,60,,,left,0.82165,,,,,,,,0,8,8,1,1,,,,,,,,,,,,,,,,
,,,,,,,stim/VC_09.wav,5fe92ffe2c2ee638b14a6d29,2021-01-03_17h49.39.406,Hungarian_step4,2020.2.3,MacIntel,60,,,right,0.759915,,,,,,,,0,9,9,8,1,,,,,,,,,,,,,,,,
,,,,,,,stim/VC_06.wav,5fe92ffe2c2ee638b14a6d29,2021-01-03_17h49.39.406,Hungarian_step4,2020.2.3,MacIntel,60,,,right,0.68741,,,,,,,,0,10,10,5,1,,,,,,,,,,,,,,,,
,,,,,,,stim/VC_04.wav,5fe92ffe2c2ee638b14a6d29,2021-01-03_17h49.39.406,Hungarian_step4,2020.2.3,MacIntel,60,,,left,0.625215,,,,,,,,1,0,11,3,1,,,,,,,,,,,,,,,,
,,,,,,,stim/VC_02.wav,5fe92ffe2c2ee638b14a6d29,2021-01-03_17h49.39.406,Hungarian_step4,2020.2.3,MacIntel,60,,,left,0.632265,,,,,,,,1,1,12,1,1,,,,,,,,,,,,,,,,
,,,,,,,stim/VC_06.wav,5fe92ffe2c2ee638b14a6d29,2021-01-03_17h49.39.406,Hungarian_step4,2020.2.3,MacIntel,60,,,right,1.00522,,,,,,,,1,2,13,5,1,,,,,,,,,,,,,,,,
,,,,,,,stim/VC_05.wav,5fe92ffe2c2ee638b14a6d29,2021-01-03_17h49.39.406,Hungarian_step4,2020.2.3,MacIntel,60,,,right,0.837225,,,,,,,,1,3,14,4,1,,,,,,,,,,,,,,,,
,,,,,,,stim/VC_08.wav,5fe92ffe2c2ee638b14a6d29,2021-01-03_17h49.39.406,Hungarian_step4,2020.2.3,MacIntel,60,,,right,0.83984,,,,,,,,1,4,15,7,1,,,,,,,,,,,,,,,,
,,,,,,,stim/VC_09.wav,5fe92ffe2c2ee638b14a6d29,2021-01-03_17h49.39.406,Hungarian_step4,2020.2.3,MacIntel,60,,,right,0.849105,,,,,,,,1,5,16,8,1,,,,,,,,,,,,,,,,
,,,,,,,stim/VC_03.wav,5fe92ffe2c2ee638b14a6d29,2021-01-03_17h49.39.406,Hungarian_step4,2020.2.3,MacIntel,60,,,left,0.658505,,,,,,,,1,6,17,2,1,,,,,,,,,,,,,,,,
,,,,,,,stim/VC_07.wav,5fe92ffe2c2ee638b14a6d29,2021-01-03_17h49.39.406,Hungarian_step4,2020.2.3,MacIntel,60,,,right,0.837635,,,,,,,,1,7,18,6,1,,,,,,,,,,,,,,,,
,,,,,,,stim/VC_11.wav,5fe92ffe2c2ee638b14a6d29,2021-01-03_17h49.39.406,Hungarian_step4,2020.2.3,MacIntel,60,,,right,1.0105,,,,,,,,1,8,19,10,1,,,,,,,,,,,,,,,,
,,,,,,,stim/VC_01.wav,5fe92ffe2c2ee638b14a6d29,2021-01-03_17h49.39.406,Hungarian_step4,2020.2.3,MacIntel,60,,,left,0.784945,,,,,,,,1,9,20,0,1,,,,,,,,,,,,,,,,
,,,,,,,stim/VC_10.wav,5fe92ffe2c2ee638b14a6d29,2021-01-03_17h49.39.406,Hungarian_step4,2020.2.3,MacIntel,60,,,right,0.76357,,,,,,,,1,10,21,9,1,,,,,,,,,,,,,,,,
,,,,,,,stim2/pa+35.wav,5fe92ffe2c2ee638b14a6d29,2021-01-03_17h49.39.406,Hungarian_step4,2020.2.3,MacIntel,60,,,,,,,,,,,,,,,,,left,0.89371,0,0,0,6,1,,,,,,,,,
,,,,,,,stim2/pa-35.wav,5fe92ffe2c2ee638b14a6d29,2021-01-03_17h49.39.406,Hungarian_step4,2020.2.3,MacIntel,60,,,,,,,,,,,,,,,,,left,0.614655,0,1,1,16,1,,,,,,,,,
,,,,,,,stim2/pa+45.wav,5fe92ffe2c2ee638b14a6d29,2021-01-03_17h49.39.406,Hungarian_step4,2020.2.3,MacIntel,60,,,,,,,,,,,,,,,,,left,0.67634,0,2,2,8,1,,,,,,,,,
,,,,,,,stim2/pa-25.wav,5fe92ffe2c2ee638b14a6d29,2021-01-03_17h49.39.406,Hungarian_step4,2020.2.3,MacIntel,60,,,,,,,,,,,,,,,,,right,0.74247,0,3,3,14,1,,,,,,,,,
,,,,,,,stim2/pa+50.wav,5fe92ffe2c2ee638b14a6d29,2021-01-03_17h49.39.406,Hungarian_step4,2020.2.3,MacIntel,60,,,,,,,,,,,,,,,,,left,0.67575,0,4,4,9,1,,,,,,,,,
,,,,,,,stim2/pa-10.wav,5fe92ffe2c2ee638b14a6d29,2021-01-03_17h49.39.406,Hungarian_step4,2020.2.3,MacIntel,60,,,,,,,,,,,,,,,,,right,0.58515,0,5,5,11,1,,,,,,,,,
,,,,,,,stim2/pa+30.wav,5fe92ffe2c2ee638b14a6d29,2021-01-03_17h49.39.406,Hungarian_step4,2020.2.3,MacIntel,60,,,,,,,,,,,,,,,,,left,0.53721,0,6,6,5,1,,,,,,,,,
,,,,,,,stim2/pa-30.wav,5fe92ffe2c2ee638b14a6d29,2021-01-03_17h49.39.406,Hungarian_step4,2020.2.3,MacIntel,60,,,,,,,,,,,,,,,,,right,0.69588,0,7,7,15,1,,,,,,,,,
,,,,,,,stim2/pa-20.wav,5fe92ffe2c2ee638b14a6d29,2021-01-03_17h49.39.406,Hungarian_step4,2020.2.3,MacIntel,60,,,,,,,,,,,,,,,,,right,0.906375,0,8,8,13,1,,,,,,,,,
,,,,,,,stim2/pa+10.wav,5fe92ffe2c2ee638b14a6d29,2021-01-03_17h49.39.406,Hungarian_step4,2020.2.3,MacIntel,60,,,,,,,,,,,,,,,,,left,0.65963,0,9,9,1,1,,,,,,,,,
,,,,,,,stim2/pa+25.wav,5fe92ffe2c2ee638b14a6d29,2021-01-03_17h49.39.406,Hungarian_step4,2020.2.3,MacIntel,60,,,,,,,,,,,,,,,,,right,0.72505,0,10,10,4,1,,,,,,,,,
,,,,,,,stim2/pa+05.wav,5fe92ffe2c2ee638b14a6d29,2021-01-03_17h49.39.406,Hungarian_step4,2020.2.3,MacIntel,60,,,,,,,,,,,,,,,,,left,0.883485,0,11,11,0,1,,,,,,,,,
,,,,,,,stim2/pa-05.wav,5fe92ffe2c2ee638b14a6d29,2021-01-03_17h49.39.406,Hungarian_step4,2020.2.3,MacIntel,60,,,,,,,,,,,,,,,,,right,0.525375,0,12,12,10,1,,,,,,,,,
,,,,,,,stim2/pa+40.wav,5fe92ffe2c2ee638b14a6d29,2021-01-03_17h49.39.406,Hungarian_step4,2020.2.3,MacIntel,60,,,,,,,,,,,,,,,,,left,0.688975,0,13,13,7,1,,,,,,,,,
,,,,,,,stim2/pa+15.wav,5fe92ffe2c2ee638b14a6d29,2021-01-03_17h49.39.406,Hungarian_step4,2020.2.3,MacIntel,60,,,,,,,,,,,,,,,,,right,0.4311,0,14,14,2,1,,,,,,,,,
,,,,,,,stim2/pa-15.wav,5fe92ffe2c2ee638b14a6d29,2021-01-03_17h49.39.406,Hungarian_step4,2020.2.3,MacIntel,60,,,,,,,,,,,,,,,,,left,0.590965,0,15,15,12,1,,,,,,,,,
,,,,,,,stim2/pa+20.wav,5fe92ffe2c2ee638b14a6d29,2021-01-03_17h49.39.406,Hungarian_step4,2020.2.3,MacIntel,60,,,,,,,,,,,,,,,,,left,1.06772,0,16,16,3,1,,,,,,,,,
,,,,,,,stim2/pa-25.wav,5fe92ffe2c2ee638b14a6d29,2021-01-03_17h49.39.406,Hungarian_step4,2020.2.3,MacIntel,60,,,,,,,,,,,,,,,,,right,0.77569,1,0,17,14,1,,,,,,,,,
,,,,,,,stim2/pa-30.wav,5fe92ffe2c2ee638b14a6d29,2021-01-03_17h49.39.406,Hungarian_step4,2020.2.3,MacIntel,60,,,,,,,,,,,,,,,,,right,0.85404,1,1,18,15,1,,,,,,,,,
,,,,,,,stim2/pa-05.wav,5fe92ffe2c2ee638b14a6d29,2021-01-03_17h49.39.406,Hungarian_step4,2020.2.3,MacIntel,60,,,,,,,,,,,,,,,,,right,0.65618,1,2,19,10,1,,,,,,,,,
,,,,,,,stim2/pa+20.wav,5fe92ffe2c2ee638b14a6d29,2021-01-03_17h49.39.406,Hungarian_step4,2020.2.3,MacIntel,60,,,,,,,,,,,,,,,,,left,1.00933,1,3,20,3,1,,,,,,,,,
,,,,,,,stim2/pa+45.wav,5fe92ffe2c2ee638b14a6d29,2021-01-03_17h49.39.406,Hungarian_step4,2020.2.3,MacIntel,60,,,,,,,,,,,,,,,,,right,0.67673,1,4,21,8,1,,,,,,,,,
,,,,,,,stim2/pa+40.wav,5fe92ffe2c2ee638b14a6d29,2021-01-03_17h49.39.406,Hungarian_step4,2020.2.3,MacIntel,60,,,,,,,,,,,,,,,,,left,0.678545,1,5,22,7,1,,,,,,,,,
,,,,,,,stim2/pa+15.wav,5fe92ffe2c2ee638b14a6d29,2021-01-03_17h49.39.406,Hungarian_step4,2020.2.3,MacIntel,60,,,,,,,,,,,,,,,,,left,1.00614,1,6,23,2,1,,,,,,,,,
,,,,,,,stim2/pa+35.wav,5fe92ffe2c2ee638b14a6d29,2021-01-03_17h49.39.406,Hungarian_step4,2020.2.3,MacIntel,60,,,,,,,,,,,,,,,,,right,0.74929,1,7,24,6,1,,,,,,,,,
,,,,,,,stim2/pa-15.wav,5fe92ffe2c2ee638b14a6d29,2021-01-03_17h49.39.406,Hungarian_step4,2020.2.3,MacIntel,60,,,,,,,,,,,,,,,,,left,2.536295,1,8,25,12,1,,,,,,,,,
,,,,,,,stim2/pa-10.wav,5fe92ffe2c2ee638b14a6d29,2021-01-03_17h49.39.406,Hungarian_step4,2020.2.3,MacIntel,60,,,,,,,,,,,,,,,,,right,1.37323,1,9,26,11,1,,,,,,,,,
,,,,,,,stim2/pa-20.wav,5fe92ffe2c2ee638b14a6d29,2021-01-03_17h49.39.406,Hungarian_step4,2020.2.3,MacIntel,60,,,,,,,,,,,,,,,,,right,0.861035,1,10,27,13,1,,,,,,,,,
,,,,,,,stim2/pa-35.wav,5fe92ffe2c2ee638b14a6d29,2021-01-03_17h49.39.406,Hungarian_step4,2020.2.3,MacIntel,60,,,,,,,,,,,,,,,,,right,0.787655,1,11,28,16,1,,,,,,,,,
,,,,,,,stim2/pa+05.wav,5fe92ffe2c2ee638b14a6d29,2021-01-03_17h49.39.406,Hungarian_step4,2020.2.3,MacIntel,60,,,,,,,,,,,,,,,,,left,0.96193,1,12,29,0,1,,,,,,,,,
,,,,,,,stim2/pa+50.wav,5fe92ffe2c2ee638b14a6d29,2021-01-03_17h49.39.406,Hungarian_step4,2020.2.3,MacIntel,60,,,,,,,,,,,,,,,,,left,1.97239,1,13,30,9,1,,,,,,,,,
,,,,,,,stim2/pa+10.wav,5fe92ffe2c2ee638b14a6d29,2021-01-03_17h49.39.406,Hungarian_step4,2020.2.3,MacIntel,60,,,,,,,,,,,,,,,,,left,2.020935,1,14,31,1,1,,,,,,,,,
,,,,,,,stim2/pa+30.wav,5fe92ffe2c2ee638b14a6d29,2021-01-03_17h49.39.406,Hungarian_step4,2020.2.3,MacIntel,60,,,,,,,,,,,,,,,,,right,0.619395,1,15,32,5,1,,,,,,,,,
,,,,,,,stim2/pa+25.wav,5fe92ffe2c2ee638b14a6d29,2021-01-03_17h49.39.406,Hungarian_step4,2020.2.3,MacIntel,60,,,,,,,,,,,,,,,,,left,0.77003,1,16,33,4,1,,,,,,,,,
,,,,,,,stim2/pa+10.wav,5fe92ffe2c2ee638b14a6d29,2021-01-03_17h49.39.406,Hungarian_step4,2020.2.3,MacIntel,60,,,,,,,,,,,,,,,,,right,0.575045,2,0,34,1,1,,,,,,,,,
,,,,,,,stim2/pa-20.wav,5fe92ffe2c2ee638b14a6d29,2021-01-03_17h49.39.406,Hungarian_step4,2020.2.3,MacIntel,60,,,,,,,,,,,,,,,,,right,0.95956,2,1,35,13,1,,,,,,,,,
,,,,,,,stim2/pa-15.wav,5fe92ffe2c2ee638b14a6d29,2021-01-03_17h49.39.406,Hungarian_step4,2020.2.3,MacIntel,60,,,,,,,,,,,,,,,,,right,0.61038,2,2,36,12,1,,,,,,,,,
,,,,,,,stim2/pa+05.wav,5fe92ffe2c2ee638b14a6d29,2021-01-03_17h49.39.406,Hungarian_step4,2020.2.3,MacIntel,60,,,,,,,,,,,,,,,,,right,0.6324,2,3,37,0,1,,,,,,,,,
,,,,,,,stim2/pa+40.wav,5fe92ffe2c2ee638b14a6d29,2021-01-03_17h49.39.406,Hungarian_step4,2020.2.3,MacIntel,60,,,,,,,,,,,,,,,,,left,0.427205,2,4,38,7,1,,,,,,,,,
,,,,,,,stim2/pa-35.wav,5fe92ffe2c2ee638b14a6d29,2021-01-03_17h49.39.406,Hungarian_step4,2020.2.3,MacIntel,60,,,,,,,,,,,,,,,,,right,1.02804,2,5,39,16,1,,,,,,,,,
,,,,,,,stim2/pa+15.wav,5fe92ffe2c2ee638b14a6d29,2021-01-03_17h49.39.406,Hungarian_step4,2020.2.3,MacIntel,60,,,,,,,,,,,,,,,,,left,0.614275,2,6,40,2,1,,,,,,,,,
,,,,,,,stim2/pa-25.wav,5fe92ffe2c2ee638b14a6d29,2021-01-03_17h49.39.406,Hungarian_step4,2020.2.3,MacIntel,60,,,,,,,,,,,,,,,,,right,0.66044,2,7,41,14,1,,,,,,,,,
,,,,,,,stim2/pa-10.wav,5fe92ffe2c2ee638b14a6d29,2021-01-03_17h49.39.406,Hungarian_step4,2020.2.3,MacIntel,60,,,,,,,,,,,,,,,,,left,0.99796,2,8,42,11,1,,,,,,,,,
,,,,,,,stim2/pa+35.wav,5fe92ffe2c2ee638b14a6d29,2021-01-03_17h49.39.406,Hungarian_step4,2020.2.3,MacIntel,60,,,,,,,,,,,,,,,,,right,0.72137,2,9,43,6,1,,,,,,,,,
,,,,,,,stim2/pa+20.wav,5fe92ffe2c2ee638b14a6d29,2021-01-03_17h49.39.406,Hungarian_step4,2020.2.3,MacIntel,60,,,,,,,,,,,,,,,,,left,0.67099,2,10,44,3,1,,,,,,,,,
,,,,,,,stim2/pa+50.wav,5fe92ffe2c2ee638b14a6d29,2021-01-03_17h49.39.406,Hungarian_step4,2020.2.3,MacIntel,60,,,,,,,,,,,,,,,,,right,0.87725,2,11,45,9,1,,,,,,,,,
,,,,,,,stim2/pa-05.wav,5fe92ffe2c2ee638b14a6d29,2021-01-03_17h49.39.406,Hungarian_step4,2020.2.3,MacIntel,60,,,,,,,,,,,,,,,,,left,0.830585,2,12,46,10,1,,,,,,,,,
,,,,,,,stim2/pa-30.wav,5fe92ffe2c2ee638b14a6d29,2021-01-03_17h49.39.406,Hungarian_step4,2020.2.3,MacIntel,60,,,,,,,,,,,,,,,,,right,0.61092,2,13,47,15,1,,,,,,,,,
,,,,,,,stim2/pa+25.wav,5fe92ffe2c2ee638b14a6d29,2021-01-03_17h49.39.406,Hungarian_step4,2020.2.3,MacIntel,60,,,,,,,,,,,,,,,,,left,0.587755,2,14,48,4,1,,,,,,,,,
,,,,,,,stim2/pa+45.wav,5fe92ffe2c2ee638b14a6d29,2021-01-03_17h49.39.406,Hungarian_step4,2020.2.3,MacIntel,60,,,,,,,,,,,,,,,,,right,0.54269,2,15,49,8,1,,,,,,,,,
,,,,,,,stim2/pa+30.wav,5fe92ffe2c2ee638b14a6d29,2021-01-03_17h49.39.406,Hungarian_step4,2020.2.3,MacIntel,60,,,,,,,,,,,,,,,,,left,0.904725,2,16,50,5,1,,,,,,,,,
,,,,,,,stim2/pa+15.wav,5fe92ffe2c2ee638b14a6d29,2021-01-03_17h49.39.406,Hungarian_step4,2020.2.3,MacIntel,60,,,,,,,,,,,,,,,,,left,6.959895,,,,,,z,51.242225,0,0,0,2,1,,
,,,,,,,stim2/pa+30.wav,5fe92ffe2c2ee638b14a6d29,2021-01-03_17h49.39.406,Hungarian_step4,2020.2.3,MacIntel,60,,,,,,,,,,,,,,,,,left,1.313265,,,,,,,,0,1,1,5,1,,
,,,,,,,stim2/pa-30.wav,5fe92ffe2c2ee638b14a6d29,2021-01-03_17h49.39.406,Hungarian_step4,2020.2.3,MacIntel,60,,,,,,,,,,,,,,,,,right,0.629635,,,,,,,,0,2,2,15,1,,
,,,,,,,stim2/pa-35.wav,5fe92ffe2c2ee638b14a6d29,2021-01-03_17h49.39.406,Hungarian_step4,2020.2.3,MacIntel,60,,,,,,,,,,,,,,,,,right,1.428405,,,,,,,,0,3,3,16,1,,
,,,,,,,stim2/pa-05.wav,5fe92ffe2c2ee638b14a6d29,2021-01-03_17h49.39.406,Hungarian_step4,2020.2.3,MacIntel,60,,,,,,,,,,,,,,,,,left,0.61076,,,,,,,,0,4,4,10,1,,
,,,,,,,stim2/pa+20.wav,5fe92ffe2c2ee638b14a6d29,2021-01-03_17h49.39.406,Hungarian_step4,2020.2.3,MacIntel,60,,,,,,,,,,,,,,,,,left,1.01847,,,,,,,,0,5,5,3,1,,
,,,,,,,stim2/pa+05.wav,5fe92ffe2c2ee638b14a6d29,2021-01-03_17h49.39.406,Hungarian_step4,2020.2.3,MacIntel,60,,,,,,,,,,,,,,,,,right,0.59137,,,,,,,,0,6,6,0,1,,
,,,,,,,stim2/pa+50.wav,5fe92ffe2c2ee638b14a6d29,2021-01-03_17h49.39.406,Hungarian_step4,2020.2.3,MacIntel,60,,,,,,,,,,,,,,,,,left,0.665045,,,,,,,,0,7,7,9,1,,
,,,,,,,stim2/pa-20.wav,5fe92ffe2c2ee638b14a6d29,2021-01-03_17h49.39.406,Hungarian_step4,2020.2.3,MacIntel,60,,,,,,,,,,,,,,,,,right,0.637795,,,,,,,,0,8,8,13,1,,
,,,,,,,stim2/pa+40.wav,5fe92ffe2c2ee638b14a6d29,2021-01-03_17h49.39.406,Hungarian_step4,2020.2.3,MacIntel,60,,,,,,,,,,,,,,,,,left,0.610395,,,,,,,,0,9,9,7,1,,
,,,,,,,stim2/pa+10.wav,5fe92ffe2c2ee638b14a6d29,2021-01-03_17h49.39.406,Hungarian_step4,2020.2.3,MacIntel,60,,,,,,,,,,,,,,,,,left,0.8944,,,,,,,,0,10,10,1,1,,
,,,,,,,stim2/pa-25.wav,5fe92ffe2c2ee638b14a6d29,2021-01-03_17h49.39.406,Hungarian_step4,2020.2.3,MacIntel,60,,,,,,,,,,,,,,,,,right,0.776725,,,,,,,,0,11,11,14,1,,
,,,,,,,stim2/pa+45.wav,5fe92ffe2c2ee638b14a6d29,2021-01-03_17h49.39.406,Hungarian_step4,2020.2.3,MacIntel,60,,,,,,,,,,,,,,,,,left,0.581555,,,,,,,,0,12,12,8,1,,
,,,,,,,stim2/pa-15.wav,5fe92ffe2c2ee638b14a6d29,2021-01-03_17h49.39.406,Hungarian_step4,2020.2.3,MacIntel,60,,,,,,,,,,,,,,,,,right,0.704165,,,,,,,,0,13,13,12,1,,
,,,,,,,stim2/pa-10.wav,5fe92ffe2c2ee638b14a6d29,2021-01-03_17h49.39.406,Hungarian_step4,2020.2.3,MacIntel,60,,,,,,,,,,,,,,,,,right,0.90467,,,,,,,,0,14,14,11,1,,
,,,,,,,stim2/pa+35.wav,5fe92ffe2c2ee638b14a6d29,2021-01-03_17h49.39.406,Hungarian_step4,2020.2.3,MacIntel,60,,,,,,,,,,,,,,,,,right,1.056385,,,,,,,,0,15,15,6,1,,
,,,,,,,stim2/pa+25.wav,5fe92ffe2c2ee638b14a6d29,2021-01-03_17h49.39.406,Hungarian_step4,2020.2.3,MacIntel,60,,,,,,,,,,,,,,,,,left,0.455325,,,,,,,,0,16,16,4,1,,
,,,,,,,stim2/pa+45.wav,5fe92ffe2c2ee638b14a6d29,2021-01-03_17h49.39.406,Hungarian_step4,2020.2.3,MacIntel,60,,,,,,,,,,,,,,,,,right,0.701925,,,,,,,,1,0,17,8,1,,
,,,,,,,stim2/pa+15.wav,5fe92ffe2c2ee638b14a6d29,2021-01-03_17h49.39.406,Hungarian_step4,2020.2.3,MacIntel,60,,,,,,,,,,,,,,,,,left,0.63879,,,,,,,,1,1,18,2,1,,
,,,,,,,stim2/pa+10.wav,5fe92ffe2c2ee638b14a6d29,2021-01-03_17h49.39.406,Hungarian_step4,2020.2.3,MacIntel,60,,,,,,,,,,,,,,,,,right,1.095745,,,,,,,,1,2,19,1,1,,
,,,,,,,stim2/pa+05.wav,5fe92ffe2c2ee638b14a6d29,2021-01-03_17h49.39.406,Hungarian_step4,2020.2.3,MacIntel,60,,,,,,,,,,,,,,,,,left,0.75422,,,,,,,,1,3,20,0,1,,
,,,,,,,stim2/pa-10.wav,5fe92ffe2c2ee638b14a6d29,2021-01-03_17h49.39.406,Hungarian_step4,2020.2.3,MacIntel,60,,,,,,,,,,,,,,,,,right,0.56959,,,,,,,,1,4,21,11,1,,
,,,,,,,stim2/pa+50.wav,5fe92ffe2c2ee638b14a6d29,2021-01-03_17h49.39.406,Hungarian_step4,2020.2.3,MacIntel,60,,,,,,,,,,,,,,,,,left,0.53617,,,,,,,,1,5,22,9,1,,
,,,,,,,stim2/pa-25.wav,5fe92ffe2c2ee638b14a6d29,2021-01-03_17h49.39.406,Hungarian_step4,2020.2.3,MacIntel,60,,,,,,,,,,,,,,,,,right,0.660045,,,,,,,,1,6,23,14,1,,
,,,,,,,stim2/pa-35.wav,5fe92ffe2c2ee638b14a6d29,2021-01-03_17h49.39.406,Hungarian_step4,2020.2.3,MacIntel,60,,,,,,,,,,,,,,,,,right,0.83795,,,,,,,,1,7,24,16,1,,
,,,,,,,stim2/pa+25.wav,5fe92ffe2c2ee638b14a6d29,2021-01-03_17h49.39.406,Hungarian_step4,2020.2.3,MacIntel,60,,,,,,,,,,,,,,,,,left,0.71821,,,,,,,,1,8,25,4,1,,
,,,,,,,stim2/pa-20.wav,5fe92ffe2c2ee638b14a6d29,2021-01-03_17h49.39.406,Hungarian_step4,2020.2.3,MacIntel,60,,,,,,,,,,,,,,,,,right,0.58136,,,,,,,,1,9,26,13,1,,
,,,,,,,stim2/pa+35.wav,5fe92ffe2c2ee638b14a6d29,2021-01-03_17h49.39.406,Hungarian_step4,2020.2.3,MacIntel,60,,,,,,,,,,,,,,,,,left,0.73368,,,,,,,,1,10,27,6,1,,
,,,,,,,stim2/pa-30.wav,5fe92ffe2c2ee638b14a6d29,2021-01-03_17h49.39.406,Hungarian_step4,2020.2.3,MacIntel,60,,,,,,,,,,,,,,,,,right,0.775685,,,,,,,,1,11,28,15,1,,
,,,,,,,stim2/pa-05.wav,5fe92ffe2c2ee638b14a6d29,2021-01-03_17h49.39.406,Hungarian_step4,2020.2.3,MacIntel,60,,,,,,,,,,,,,,,,,left,1.0761,,,,,,,,1,12,29,10,1,,
,,,,,,,stim2/pa+30.wav,5fe92ffe2c2ee638b14a6d29,2021-01-03_17h49.39.406,Hungarian_step4,2020.2.3,MacIntel,60,,,,,,,,,,,,,,,,,left,1.07656,,,,,,,,1,13,30,5,1,,
,,,,,,,stim2/pa-15.wav,5fe92ffe2c2ee638b14a6d29,2021-01-03_17h49.39.406,Hungarian_step4,2020.2.3,MacIntel,60,,,,,,,,,,,,,,,,,right,0.693745,,,,,,,,1,14,31,12,1,,
,,,,,,,stim2/pa+20.wav,5fe92ffe2c2ee638b14a6d29,2021-01-03_17h49.39.406,Hungarian_step4,2020.2.3,MacIntel,60,,,,,,,,,,,,,,,,,left,0.887315,,,,,,,,1,15,32,3,1,,
,,,,,,,stim2/pa+40.wav,5fe92ffe2c2ee638b14a6d29,2021-01-03_17h49.39.406,Hungarian_step4,2020.2.3,MacIntel,60,,,,,,,,,,,,,,,,,right,0.67121,,,,,,,,1,16,33,7,1,,
,,,,,,,,5fe92ffe2c2ee638b14a6d29,2021-01-03_17h49.39.406,Hungarian_step4,2020.2.3,MacIntel,60,,,,,,,,,,,,,,,,,,,,,,,,,,,,,,,space,2.392205
