resp.keys,resp.rt,trials.thisRepN,trials.thisTrialN,trials.thisN,trials.thisIndex,trials.ran,stimuli,participant,date,expName,psychopyVersion,OS,frameRate,gotResponse.keys,gotResponse.rt,resp_2.keys,resp_2.rt,trials_2.thisRepN,trials_2.thisTrialN,trials_2.thisN,trials_2.thisIndex,trials_2.ran,key_resp_3.keys,key_resp_3.rt,trials_4.thisRepN,trials_4.thisTrialN,trials_4.thisN,trials_4.thisIndex,trials_4.ran,resp_3.keys,resp_3.rt,trials_3.thisRepN,trials_3.thisTrialN,trials_3.thisN,trials_3.thisIndex,trials_3.ran,key_resp_2.keys,key_resp_2.rt,trials_5.thisRepN,trials_5.thisTrialN,trials_5.thisN,trials_5.thisIndex,trials_5.ran,key_resp.keys,key_resp.rt
left,2.433415,0,0,0,0,1,stim/VC_01.wav,5a08c9a7f2e3460001edb063,2021-01-07_11h02.22.059,Hungarian_step4,2020.2.3,Win32,60,,,,,,,,,,,,,,,,,,,,,,,,,,,,,,,,
right,0.75495,0,1,1,1,1,stim/VC_11.wav,5a08c9a7f2e3460001edb063,2021-01-07_11h02.22.059,Hungarian_step4,2020.2.3,Win32,60,,,,,,,,,,,,,,,,,,,,,,,,,,,,,,,,
,,,,,,,stim/VC_02.wav,5a08c9a7f2e3460001edb063,2021-01-07_11h02.22.059,Hungarian_step4,2020.2.3,Win32,60,space,2.406815,left,0.80716,0,0,0,1,1,,,,,,,,,,,,,,,,,,,,,,,
,,,,,,,stim/VC_01.wav,5a08c9a7f2e3460001edb063,2021-01-07_11h02.22.059,Hungarian_step4,2020.2.3,Win32,60,,,left,0.52698,0,1,1,0,1,,,,,,,,,,,,,,,,,,,,,,,
,,,,,,,stim/VC_10.wav,5a08c9a7f2e3460001edb063,2021-01-07_11h02.22.059,Hungarian_step4,2020.2.3,Win32,60,,,right,0.49165,0,2,2,9,1,,,,,,,,,,,,,,,,,,,,,,,
,,,,,,,stim/VC_04.wav,5a08c9a7f2e3460001edb063,2021-01-07_11h02.22.059,Hungarian_step4,2020.2.3,Win32,60,,,right,0.840865,0,3,3,3,1,,,,,,,,,,,,,,,,,,,,,,,
,,,,,,,stim/VC_03.wav,5a08c9a7f2e3460001edb063,2021-01-07_11h02.22.059,Hungarian_step4,2020.2.3,Win32,60,,,left,0.38771,0,4,4,2,1,,,,,,,,,,,,,,,,,,,,,,,
,,,,,,,stim/VC_06.wav,5a08c9a7f2e3460001edb063,2021-01-07_11h02.22.059,Hungarian_step4,2020.2.3,Win32,60,,,right,0.542805,0,5,5,5,1,,,,,,,,,,,,,,,,,,,,,,,
,,,,,,,stim/VC_11.wav,5a08c9a7f2e3460001edb063,2021-01-07_11h02.22.059,Hungarian_step4,2020.2.3,Win32,60,,,right,0.481075,0,6,6,10,1,,,,,,,,,,,,,,,,,,,,,,,
,,,,,,,stim/VC_08.wav,5a08c9a7f2e3460001edb063,2021-01-07_11h02.22.059,Hungarian_step4,2020.2.3,Win32,60,,,right,0.514815,0,7,7,7,1,,,,,,,,,,,,,,,,,,,,,,,
,,,,,,,stim/VC_05.wav,5a08c9a7f2e3460001edb063,2021-01-07_11h02.22.059,Hungarian_step4,2020.2.3,Win32,60,,,right,0.50485,0,8,8,4,1,,,,,,,,,,,,,,,,,,,,,,,
,,,,,,,stim/VC_07.wav,5a08c9a7f2e3460001edb063,2021-01-07_11h02.22.059,Hungarian_step4,2020.2.3,Win32,60,,,right,0.445125,0,9,9,6,1,,,,,,,,,,,,,,,,,,,,,,,
,,,,,,,stim/VC_09.wav,5a08c9a7f2e3460001edb063,2021-01-07_11h02.22.059,Hungarian_step4,2020.2.3,Win32,60,,,right,0.47185,0,10,10,8,1,,,,,,,,,,,,,,,,,,,,,,,
,,,,,,,stim/VC_09.wav,5a08c9a7f2e3460001edb063,2021-01-07_11h02.22.059,Hungarian_step4,2020.2.3,Win32,60,,,right,0.47646,1,0,11,8,1,,,,,,,,,,,,,,,,,,,,,,,
,,,,,,,stim/VC_07.wav,5a08c9a7f2e3460001edb063,2021-01-07_11h02.22.059,Hungarian_step4,2020.2.3,Win32,60,,,right,0.4466,1,1,12,6,1,,,,,,,,,,,,,,,,,,,,,,,
,,,,,,,stim/VC_01.wav,5a08c9a7f2e3460001edb063,2021-01-07_11h02.22.059,Hungarian_step4,2020.2.3,Win32,60,,,left,0.374,1,2,13,0,1,,,,,,,,,,,,,,,,,,,,,,,
,,,,,,,stim/VC_02.wav,5a08c9a7f2e3460001edb063,2021-01-07_11h02.22.059,Hungarian_step4,2020.2.3,Win32,60,,,left,0.422385,1,3,14,1,1,,,,,,,,,,,,,,,,,,,,,,,
,,,,,,,stim/VC_03.wav,5a08c9a7f2e3460001edb063,2021-01-07_11h02.22.059,Hungarian_step4,2020.2.3,Win32,60,,,left,0.4217,1,4,15,2,1,,,,,,,,,,,,,,,,,,,,,,,
,,,,,,,stim/VC_05.wav,5a08c9a7f2e3460001edb063,2021-01-07_11h02.22.059,Hungarian_step4,2020.2.3,Win32,60,,,right,0.49204,1,5,16,4,1,,,,,,,,,,,,,,,,,,,,,,,
,,,,,,,stim/VC_06.wav,5a08c9a7f2e3460001edb063,2021-01-07_11h02.22.059,Hungarian_step4,2020.2.3,Win32,60,,,right,0.488815,1,6,17,5,1,,,,,,,,,,,,,,,,,,,,,,,
,,,,,,,stim/VC_04.wav,5a08c9a7f2e3460001edb063,2021-01-07_11h02.22.059,Hungarian_step4,2020.2.3,Win32,60,,,right,0.49244,1,7,18,3,1,,,,,,,,,,,,,,,,,,,,,,,
,,,,,,,stim/VC_08.wav,5a08c9a7f2e3460001edb063,2021-01-07_11h02.22.059,Hungarian_step4,2020.2.3,Win32,60,,,right,0.42527,1,8,19,7,1,,,,,,,,,,,,,,,,,,,,,,,
,,,,,,,stim/VC_10.wav,5a08c9a7f2e3460001edb063,2021-01-07_11h02.22.059,Hungarian_step4,2020.2.3,Win32,60,,,right,0.58977,1,9,20,9,1,,,,,,,,,,,,,,,,,,,,,,,
,,,,,,,stim/VC_11.wav,5a08c9a7f2e3460001edb063,2021-01-07_11h02.22.059,Hungarian_step4,2020.2.3,Win32,60,,,right,0.38906,1,10,21,10,1,,,,,,,,,,,,,,,,,,,,,,,
,,,,,,,stim/VC_09.wav,5a08c9a7f2e3460001edb063,2021-01-07_11h02.22.059,Hungarian_step4,2020.2.3,Win32,60,,,right,0.392845,2,0,22,8,1,,,,,,,,,,,,,,,,,,,,,,,
,,,,,,,stim/VC_04.wav,5a08c9a7f2e3460001edb063,2021-01-07_11h02.22.059,Hungarian_step4,2020.2.3,Win32,60,,,left,0.587925,2,1,23,3,1,,,,,,,,,,,,,,,,,,,,,,,
,,,,,,,stim/VC_08.wav,5a08c9a7f2e3460001edb063,2021-01-07_11h02.22.059,Hungarian_step4,2020.2.3,Win32,60,,,right,0.447875,2,2,24,7,1,,,,,,,,,,,,,,,,,,,,,,,
,,,,,,,stim/VC_01.wav,5a08c9a7f2e3460001edb063,2021-01-07_11h02.22.059,Hungarian_step4,2020.2.3,Win32,60,,,left,0.4285,2,3,25,0,1,,,,,,,,,,,,,,,,,,,,,,,
,,,,,,,stim/VC_02.wav,5a08c9a7f2e3460001edb063,2021-01-07_11h02.22.059,Hungarian_step4,2020.2.3,Win32,60,,,left,0.444155,2,4,26,1,1,,,,,,,,,,,,,,,,,,,,,,,
,,,,,,,stim/VC_03.wav,5a08c9a7f2e3460001edb063,2021-01-07_11h02.22.059,Hungarian_step4,2020.2.3,Win32,60,,,left,0.52896,2,5,27,2,1,,,,,,,,,,,,,,,,,,,,,,,
,,,,,,,stim/VC_10.wav,5a08c9a7f2e3460001edb063,2021-01-07_11h02.22.059,Hungarian_step4,2020.2.3,Win32,60,,,right,0.44852,2,6,28,9,1,,,,,,,,,,,,,,,,,,,,,,,
,,,,,,,stim/VC_07.wav,5a08c9a7f2e3460001edb063,2021-01-07_11h02.22.059,Hungarian_step4,2020.2.3,Win32,60,,,right,0.70196,2,7,29,6,1,,,,,,,,,,,,,,,,,,,,,,,
,,,,,,,stim/VC_11.wav,5a08c9a7f2e3460001edb063,2021-01-07_11h02.22.059,Hungarian_step4,2020.2.3,Win32,60,,,right,0.474825,2,8,30,10,1,,,,,,,,,,,,,,,,,,,,,,,
,,,,,,,stim/VC_06.wav,5a08c9a7f2e3460001edb063,2021-01-07_11h02.22.059,Hungarian_step4,2020.2.3,Win32,60,,,right,0.42724,2,9,31,5,1,,,,,,,,,,,,,,,,,,,,,,,
,,,,,,,stim/VC_05.wav,5a08c9a7f2e3460001edb063,2021-01-07_11h02.22.059,Hungarian_step4,2020.2.3,Win32,60,,,right,0.44069,2,10,32,4,1,,,,,,,,,,,,,,,,,,,,,,,
,,,,,,,stim/VC_08.wav,5a08c9a7f2e3460001edb063,2021-01-07_11h02.22.059,Hungarian_step4,2020.2.3,Win32,60,,,right,0.70608,,,,,,3,1.472805,0,0,0,7,1,,,,,,,,,,,,,,,,
,,,,,,,stim/VC_07.wav,5a08c9a7f2e3460001edb063,2021-01-07_11h02.22.059,Hungarian_step4,2020.2.3,Win32,60,,,right,0.413545,,,,,,,,0,1,1,6,1,,,,,,,,,,,,,,,,
,,,,,,,stim/VC_06.wav,5a08c9a7f2e3460001edb063,2021-01-07_11h02.22.059,Hungarian_step4,2020.2.3,Win32,60,,,right,0.435435,,,,,,,,0,2,2,5,1,,,,,,,,,,,,,,,,
,,,,,,,stim/VC_11.wav,5a08c9a7f2e3460001edb063,2021-01-07_11h02.22.059,Hungarian_step4,2020.2.3,Win32,60,,,right,0.390095,,,,,,,,0,3,3,10,1,,,,,,,,,,,,,,,,
,,,,,,,stim/VC_05.wav,5a08c9a7f2e3460001edb063,2021-01-07_11h02.22.059,Hungarian_step4,2020.2.3,Win32,60,,,right,0.70577,,,,,,,,0,4,4,4,1,,,,,,,,,,,,,,,,
,,,,,,,stim/VC_10.wav,5a08c9a7f2e3460001edb063,2021-01-07_11h02.22.059,Hungarian_step4,2020.2.3,Win32,60,,,right,0.520895,,,,,,,,0,5,5,9,1,,,,,,,,,,,,,,,,
,,,,,,,stim/VC_03.wav,5a08c9a7f2e3460001edb063,2021-01-07_11h02.22.059,Hungarian_step4,2020.2.3,Win32,60,,,left,0.490655,,,,,,,,0,6,6,2,1,,,,,,,,,,,,,,,,
,,,,,,,stim/VC_09.wav,5a08c9a7f2e3460001edb063,2021-01-07_11h02.22.059,Hungarian_step4,2020.2.3,Win32,60,,,right,0.41082,,,,,,,,0,7,7,8,1,,,,,,,,,,,,,,,,
,,,,,,,stim/VC_02.wav,5a08c9a7f2e3460001edb063,2021-01-07_11h02.22.059,Hungarian_step4,2020.2.3,Win32,60,,,left,0.39063,,,,,,,,0,8,8,1,1,,,,,,,,,,,,,,,,
,,,,,,,stim/VC_01.wav,5a08c9a7f2e3460001edb063,2021-01-07_11h02.22.059,Hungarian_step4,2020.2.3,Win32,60,,,left,0.48081,,,,,,,,0,9,9,0,1,,,,,,,,,,,,,,,,
,,,,,,,stim/VC_04.wav,5a08c9a7f2e3460001edb063,2021-01-07_11h02.22.059,Hungarian_step4,2020.2.3,Win32,60,,,right,0.53776,,,,,,,,0,10,10,3,1,,,,,,,,,,,,,,,,
,,,,,,,stim/VC_08.wav,5a08c9a7f2e3460001edb063,2021-01-07_11h02.22.059,Hungarian_step4,2020.2.3,Win32,60,,,right,0.607935,,,,,,,,1,0,11,7,1,,,,,,,,,,,,,,,,
,,,,,,,stim/VC_04.wav,5a08c9a7f2e3460001edb063,2021-01-07_11h02.22.059,Hungarian_step4,2020.2.3,Win32,60,,,left,0.69154,,,,,,,,1,1,12,3,1,,,,,,,,,,,,,,,,
,,,,,,,stim/VC_05.wav,5a08c9a7f2e3460001edb063,2021-01-07_11h02.22.059,Hungarian_step4,2020.2.3,Win32,60,,,left,0.671115,,,,,,,,1,2,13,4,1,,,,,,,,,,,,,,,,
,,,,,,,stim/VC_07.wav,5a08c9a7f2e3460001edb063,2021-01-07_11h02.22.059,Hungarian_step4,2020.2.3,Win32,60,,,right,0.50795,,,,,,,,1,3,14,6,1,,,,,,,,,,,,,,,,
,,,,,,,stim/VC_03.wav,5a08c9a7f2e3460001edb063,2021-01-07_11h02.22.059,Hungarian_step4,2020.2.3,Win32,60,,,left,0.5832,,,,,,,,1,4,15,2,1,,,,,,,,,,,,,,,,
,,,,,,,stim/VC_10.wav,5a08c9a7f2e3460001edb063,2021-01-07_11h02.22.059,Hungarian_step4,2020.2.3,Win32,60,,,right,0.528805,,,,,,,,1,5,16,9,1,,,,,,,,,,,,,,,,
,,,,,,,stim/VC_01.wav,5a08c9a7f2e3460001edb063,2021-01-07_11h02.22.059,Hungarian_step4,2020.2.3,Win32,60,,,left,0.395515,,,,,,,,1,6,17,0,1,,,,,,,,,,,,,,,,
,,,,,,,stim/VC_11.wav,5a08c9a7f2e3460001edb063,2021-01-07_11h02.22.059,Hungarian_step4,2020.2.3,Win32,60,,,right,0.377205,,,,,,,,1,7,18,10,1,,,,,,,,,,,,,,,,
,,,,,,,stim/VC_06.wav,5a08c9a7f2e3460001edb063,2021-01-07_11h02.22.059,Hungarian_step4,2020.2.3,Win32,60,,,right,0.53964,,,,,,,,1,8,19,5,1,,,,,,,,,,,,,,,,
,,,,,,,stim/VC_09.wav,5a08c9a7f2e3460001edb063,2021-01-07_11h02.22.059,Hungarian_step4,2020.2.3,Win32,60,,,right,0.473825,,,,,,,,1,9,20,8,1,,,,,,,,,,,,,,,,
,,,,,,,stim/VC_02.wav,5a08c9a7f2e3460001edb063,2021-01-07_11h02.22.059,Hungarian_step4,2020.2.3,Win32,60,,,left,0.39385,,,,,,,,1,10,21,1,1,,,,,,,,,,,,,,,,
,,,,,,,stim2/pa+45.wav,5a08c9a7f2e3460001edb063,2021-01-07_11h02.22.059,Hungarian_step4,2020.2.3,Win32,60,,,,,,,,,,,,,,,,,left,1.9183,0,0,0,8,1,,,,,,,,,
,,,,,,,stim2/pa-30.wav,5a08c9a7f2e3460001edb063,2021-01-07_11h02.22.059,Hungarian_step4,2020.2.3,Win32,60,,,,,,,,,,,,,,,,,right,0.64502,0,1,1,15,1,,,,,,,,,
,,,,,,,stim2/pa+25.wav,5a08c9a7f2e3460001edb063,2021-01-07_11h02.22.059,Hungarian_step4,2020.2.3,Win32,60,,,,,,,,,,,,,,,,,left,0.52267,0,2,2,4,1,,,,,,,,,
,,,,,,,stim2/pa-20.wav,5a08c9a7f2e3460001edb063,2021-01-07_11h02.22.059,Hungarian_step4,2020.2.3,Win32,60,,,,,,,,,,,,,,,,,right,0.431935,0,3,3,13,1,,,,,,,,,
,,,,,,,stim2/pa-25.wav,5a08c9a7f2e3460001edb063,2021-01-07_11h02.22.059,Hungarian_step4,2020.2.3,Win32,60,,,,,,,,,,,,,,,,,right,0.441235,0,4,4,14,1,,,,,,,,,
,,,,,,,stim2/pa-35.wav,5a08c9a7f2e3460001edb063,2021-01-07_11h02.22.059,Hungarian_step4,2020.2.3,Win32,60,,,,,,,,,,,,,,,,,left,0.53172,0,5,5,16,1,,,,,,,,,
,,,,,,,stim2/pa+35.wav,5a08c9a7f2e3460001edb063,2021-01-07_11h02.22.059,Hungarian_step4,2020.2.3,Win32,60,,,,,,,,,,,,,,,,,right,0.359165,0,6,6,6,1,,,,,,,,,
,,,,,,,stim2/pa+15.wav,5a08c9a7f2e3460001edb063,2021-01-07_11h02.22.059,Hungarian_step4,2020.2.3,Win32,60,,,,,,,,,,,,,,,,,left,0.526115,0,7,7,2,1,,,,,,,,,
,,,,,,,stim2/pa-05.wav,5a08c9a7f2e3460001edb063,2021-01-07_11h02.22.059,Hungarian_step4,2020.2.3,Win32,60,,,,,,,,,,,,,,,,,right,0.383245,0,8,8,10,1,,,,,,,,,
,,,,,,,stim2/pa+10.wav,5a08c9a7f2e3460001edb063,2021-01-07_11h02.22.059,Hungarian_step4,2020.2.3,Win32,60,,,,,,,,,,,,,,,,,left,0.40789,0,9,9,1,1,,,,,,,,,
,,,,,,,stim2/pa-10.wav,5a08c9a7f2e3460001edb063,2021-01-07_11h02.22.059,Hungarian_step4,2020.2.3,Win32,60,,,,,,,,,,,,,,,,,right,0.374065,0,10,10,11,1,,,,,,,,,
,,,,,,,stim2/pa+20.wav,5a08c9a7f2e3460001edb063,2021-01-07_11h02.22.059,Hungarian_step4,2020.2.3,Win32,60,,,,,,,,,,,,,,,,,left,0.359375,0,11,11,3,1,,,,,,,,,
,,,,,,,stim2/pa+05.wav,5a08c9a7f2e3460001edb063,2021-01-07_11h02.22.059,Hungarian_step4,2020.2.3,Win32,60,,,,,,,,,,,,,,,,,right,0.3069,0,12,12,0,1,,,,,,,,,
,,,,,,,stim2/pa+50.wav,5a08c9a7f2e3460001edb063,2021-01-07_11h02.22.059,Hungarian_step4,2020.2.3,Win32,60,,,,,,,,,,,,,,,,,left,0.367205,0,13,13,9,1,,,,,,,,,
,,,,,,,stim2/pa+40.wav,5a08c9a7f2e3460001edb063,2021-01-07_11h02.22.059,Hungarian_step4,2020.2.3,Win32,60,,,,,,,,,,,,,,,,,right,1.50694,0,14,14,7,1,,,,,,,,,
,,,,,,,stim2/pa+30.wav,5a08c9a7f2e3460001edb063,2021-01-07_11h02.22.059,Hungarian_step4,2020.2.3,Win32,60,,,,,,,,,,,,,,,,,right,0.428815,0,15,15,5,1,,,,,,,,,
,,,,,,,stim2/pa-15.wav,5a08c9a7f2e3460001edb063,2021-01-07_11h02.22.059,Hungarian_step4,2020.2.3,Win32,60,,,,,,,,,,,,,,,,,right,0.521695,0,16,16,12,1,,,,,,,,,
,,,,,,,stim2/pa+15.wav,5a08c9a7f2e3460001edb063,2021-01-07_11h02.22.059,Hungarian_step4,2020.2.3,Win32,60,,,,,,,,,,,,,,,,,left,0.32779,1,0,17,2,1,,,,,,,,,
,,,,,,,stim2/pa+40.wav,5a08c9a7f2e3460001edb063,2021-01-07_11h02.22.059,Hungarian_step4,2020.2.3,Win32,60,,,,,,,,,,,,,,,,,right,0.423085,1,1,18,7,1,,,,,,,,,
,,,,,,,stim2/pa-15.wav,5a08c9a7f2e3460001edb063,2021-01-07_11h02.22.059,Hungarian_step4,2020.2.3,Win32,60,,,,,,,,,,,,,,,,,right,0.50561,1,2,19,12,1,,,,,,,,,
,,,,,,,stim2/pa-20.wav,5a08c9a7f2e3460001edb063,2021-01-07_11h02.22.059,Hungarian_step4,2020.2.3,Win32,60,,,,,,,,,,,,,,,,,right,0.58009,1,3,20,13,1,,,,,,,,,
,,,,,,,stim2/pa+30.wav,5a08c9a7f2e3460001edb063,2021-01-07_11h02.22.059,Hungarian_step4,2020.2.3,Win32,60,,,,,,,,,,,,,,,,,left,0.39024,1,4,21,5,1,,,,,,,,,
,,,,,,,stim2/pa+35.wav,5a08c9a7f2e3460001edb063,2021-01-07_11h02.22.059,Hungarian_step4,2020.2.3,Win32,60,,,,,,,,,,,,,,,,,left,0.419065,1,5,22,6,1,,,,,,,,,
,,,,,,,stim2/pa-25.wav,5a08c9a7f2e3460001edb063,2021-01-07_11h02.22.059,Hungarian_step4,2020.2.3,Win32,60,,,,,,,,,,,,,,,,,right,0.398905,1,6,23,14,1,,,,,,,,,
,,,,,,,stim2/pa+45.wav,5a08c9a7f2e3460001edb063,2021-01-07_11h02.22.059,Hungarian_step4,2020.2.3,Win32,60,,,,,,,,,,,,,,,,,left,0.377525,1,7,24,8,1,,,,,,,,,
,,,,,,,stim2/pa+10.wav,5a08c9a7f2e3460001edb063,2021-01-07_11h02.22.059,Hungarian_step4,2020.2.3,Win32,60,,,,,,,,,,,,,,,,,left,0.66661,1,8,25,1,1,,,,,,,,,
,,,,,,,stim2/pa-05.wav,5a08c9a7f2e3460001edb063,2021-01-07_11h02.22.059,Hungarian_step4,2020.2.3,Win32,60,,,,,,,,,,,,,,,,,right,0.403035,1,9,26,10,1,,,,,,,,,
,,,,,,,stim2/pa+05.wav,5a08c9a7f2e3460001edb063,2021-01-07_11h02.22.059,Hungarian_step4,2020.2.3,Win32,60,,,,,,,,,,,,,,,,,left,0.430635,1,10,27,0,1,,,,,,,,,
,,,,,,,stim2/pa-10.wav,5a08c9a7f2e3460001edb063,2021-01-07_11h02.22.059,Hungarian_step4,2020.2.3,Win32,60,,,,,,,,,,,,,,,,,right,0.413535,1,11,28,11,1,,,,,,,,,
,,,,,,,stim2/pa-35.wav,5a08c9a7f2e3460001edb063,2021-01-07_11h02.22.059,Hungarian_step4,2020.2.3,Win32,60,,,,,,,,,,,,,,,,,right,0.47302,1,12,29,16,1,,,,,,,,,
,,,,,,,stim2/pa-30.wav,5a08c9a7f2e3460001edb063,2021-01-07_11h02.22.059,Hungarian_step4,2020.2.3,Win32,60,,,,,,,,,,,,,,,,,right,0.41176,1,13,30,15,1,,,,,,,,,
,,,,,,,stim2/pa+20.wav,5a08c9a7f2e3460001edb063,2021-01-07_11h02.22.059,Hungarian_step4,2020.2.3,Win32,60,,,,,,,,,,,,,,,,,left,0.4164,1,14,31,3,1,,,,,,,,,
,,,,,,,stim2/pa+25.wav,5a08c9a7f2e3460001edb063,2021-01-07_11h02.22.059,Hungarian_step4,2020.2.3,Win32,60,,,,,,,,,,,,,,,,,right,0.777795,1,15,32,4,1,,,,,,,,,
,,,,,,,stim2/pa+50.wav,5a08c9a7f2e3460001edb063,2021-01-07_11h02.22.059,Hungarian_step4,2020.2.3,Win32,60,,,,,,,,,,,,,,,,,left,0.35534,1,16,33,9,1,,,,,,,,,
,,,,,,,stim2/pa+35.wav,5a08c9a7f2e3460001edb063,2021-01-07_11h02.22.059,Hungarian_step4,2020.2.3,Win32,60,,,,,,,,,,,,,,,,,right,0.42571,2,0,34,6,1,,,,,,,,,
,,,,,,,stim2/pa-10.wav,5a08c9a7f2e3460001edb063,2021-01-07_11h02.22.059,Hungarian_step4,2020.2.3,Win32,60,,,,,,,,,,,,,,,,,right,0.530475,2,1,35,11,1,,,,,,,,,
,,,,,,,stim2/pa-25.wav,5a08c9a7f2e3460001edb063,2021-01-07_11h02.22.059,Hungarian_step4,2020.2.3,Win32,60,,,,,,,,,,,,,,,,,right,0.47251,2,2,36,14,1,,,,,,,,,
,,,,,,,stim2/pa+40.wav,5a08c9a7f2e3460001edb063,2021-01-07_11h02.22.059,Hungarian_step4,2020.2.3,Win32,60,,,,,,,,,,,,,,,,,left,0.502815,2,3,37,7,1,,,,,,,,,
,,,,,,,stim2/pa+15.wav,5a08c9a7f2e3460001edb063,2021-01-07_11h02.22.059,Hungarian_step4,2020.2.3,Win32,60,,,,,,,,,,,,,,,,,right,0.58891,2,4,38,2,1,,,,,,,,,
,,,,,,,stim2/pa-35.wav,5a08c9a7f2e3460001edb063,2021-01-07_11h02.22.059,Hungarian_step4,2020.2.3,Win32,60,,,,,,,,,,,,,,,,,right,0.56606,2,5,39,16,1,,,,,,,,,
,,,,,,,stim2/pa-20.wav,5a08c9a7f2e3460001edb063,2021-01-07_11h02.22.059,Hungarian_step4,2020.2.3,Win32,60,,,,,,,,,,,,,,,,,right,0.396935,2,6,40,13,1,,,,,,,,,
,,,,,,,stim2/pa+25.wav,5a08c9a7f2e3460001edb063,2021-01-07_11h02.22.059,Hungarian_step4,2020.2.3,Win32,60,,,,,,,,,,,,,,,,,left,0.49623,2,7,41,4,1,,,,,,,,,
,,,,,,,stim2/pa+10.wav,5a08c9a7f2e3460001edb063,2021-01-07_11h02.22.059,Hungarian_step4,2020.2.3,Win32,60,,,,,,,,,,,,,,,,,right,0.683295,2,8,42,1,1,,,,,,,,,
,,,,,,,stim2/pa+45.wav,5a08c9a7f2e3460001edb063,2021-01-07_11h02.22.059,Hungarian_step4,2020.2.3,Win32,60,,,,,,,,,,,,,,,,,right,1.05629,2,9,43,8,1,,,,,,,,,
,,,,,,,stim2/pa-30.wav,5a08c9a7f2e3460001edb063,2021-01-07_11h02.22.059,Hungarian_step4,2020.2.3,Win32,60,,,,,,,,,,,,,,,,,right,0.47259,2,10,44,15,1,,,,,,,,,
,,,,,,,stim2/pa-05.wav,5a08c9a7f2e3460001edb063,2021-01-07_11h02.22.059,Hungarian_step4,2020.2.3,Win32,60,,,,,,,,,,,,,,,,,right,0.44791,2,11,45,10,1,,,,,,,,,
,,,,,,,stim2/pa+50.wav,5a08c9a7f2e3460001edb063,2021-01-07_11h02.22.059,Hungarian_step4,2020.2.3,Win32,60,,,,,,,,,,,,,,,,,left,0.43645,2,12,46,9,1,,,,,,,,,
,,,,,,,stim2/pa-15.wav,5a08c9a7f2e3460001edb063,2021-01-07_11h02.22.059,Hungarian_step4,2020.2.3,Win32,60,,,,,,,,,,,,,,,,,right,0.446925,2,13,47,12,1,,,,,,,,,
,,,,,,,stim2/pa+05.wav,5a08c9a7f2e3460001edb063,2021-01-07_11h02.22.059,Hungarian_step4,2020.2.3,Win32,60,,,,,,,,,,,,,,,,,left,0.37183,2,14,48,0,1,,,,,,,,,
,,,,,,,stim2/pa+20.wav,5a08c9a7f2e3460001edb063,2021-01-07_11h02.22.059,Hungarian_step4,2020.2.3,Win32,60,,,,,,,,,,,,,,,,,right,0.364275,2,15,49,3,1,,,,,,,,,
,,,,,,,stim2/pa+30.wav,5a08c9a7f2e3460001edb063,2021-01-07_11h02.22.059,Hungarian_step4,2020.2.3,Win32,60,,,,,,,,,,,,,,,,,left,0.67548,2,16,50,5,1,,,,,,,,,
,,,,,,,stim2/pa+45.wav,5a08c9a7f2e3460001edb063,2021-01-07_11h02.22.059,Hungarian_step4,2020.2.3,Win32,60,,,,,,,,,,,,,,,,,right,0.664965,,,,,,f,1.65757,0,0,0,8,1,,
,,,,,,,stim2/pa-15.wav,5a08c9a7f2e3460001edb063,2021-01-07_11h02.22.059,Hungarian_step4,2020.2.3,Win32,60,,,,,,,,,,,,,,,,,right,0.881315,,,,,,,,0,1,1,12,1,,
,,,,,,,stim2/pa-20.wav,5a08c9a7f2e3460001edb063,2021-01-07_11h02.22.059,Hungarian_step4,2020.2.3,Win32,60,,,,,,,,,,,,,,,,,right,0.5092,,,,,,,,0,2,2,13,1,,
,,,,,,,stim2/pa-05.wav,5a08c9a7f2e3460001edb063,2021-01-07_11h02.22.059,Hungarian_step4,2020.2.3,Win32,60,,,,,,,,,,,,,,,,,right,0.593,,,,,,,,0,3,3,10,1,,
,,,,,,,stim2/pa+35.wav,5a08c9a7f2e3460001edb063,2021-01-07_11h02.22.059,Hungarian_step4,2020.2.3,Win32,60,,,,,,,,,,,,,,,,,left,0.488735,,,,,,,,0,4,4,6,1,,
,,,,,,,stim2/pa-30.wav,5a08c9a7f2e3460001edb063,2021-01-07_11h02.22.059,Hungarian_step4,2020.2.3,Win32,60,,,,,,,,,,,,,,,,,right,0.545105,,,,,,,,0,5,5,15,1,,
,,,,,,,stim2/pa+20.wav,5a08c9a7f2e3460001edb063,2021-01-07_11h02.22.059,Hungarian_step4,2020.2.3,Win32,60,,,,,,,,,,,,,,,,,left,0.55623,,,,,,,,0,6,6,3,1,,
,,,,,,,stim2/pa-10.wav,5a08c9a7f2e3460001edb063,2021-01-07_11h02.22.059,Hungarian_step4,2020.2.3,Win32,60,,,,,,,,,,,,,,,,,right,0.51143,,,,,,,,0,7,7,11,1,,
,,,,,,,stim2/pa+25.wav,5a08c9a7f2e3460001edb063,2021-01-07_11h02.22.059,Hungarian_step4,2020.2.3,Win32,60,,,,,,,,,,,,,,,,,left,0.38448,,,,,,,,0,8,8,4,1,,
,,,,,,,stim2/pa+10.wav,5a08c9a7f2e3460001edb063,2021-01-07_11h02.22.059,Hungarian_step4,2020.2.3,Win32,60,,,,,,,,,,,,,,,,,right,0.35312,,,,,,,,0,9,9,1,1,,
,,,,,,,stim2/pa+15.wav,5a08c9a7f2e3460001edb063,2021-01-07_11h02.22.059,Hungarian_step4,2020.2.3,Win32,60,,,,,,,,,,,,,,,,,left,0.345585,,,,,,,,0,10,10,2,1,,
,,,,,,,stim2/pa+30.wav,5a08c9a7f2e3460001edb063,2021-01-07_11h02.22.059,Hungarian_step4,2020.2.3,Win32,60,,,,,,,,,,,,,,,,,right,0.370515,,,,,,,,0,11,11,5,1,,
,,,,,,,stim2/pa-35.wav,5a08c9a7f2e3460001edb063,2021-01-07_11h02.22.059,Hungarian_step4,2020.2.3,Win32,60,,,,,,,,,,,,,,,,,right,0.479135,,,,,,,,0,12,12,16,1,,
,,,,,,,stim2/pa+05.wav,5a08c9a7f2e3460001edb063,2021-01-07_11h02.22.059,Hungarian_step4,2020.2.3,Win32,60,,,,,,,,,,,,,,,,,left,0.341865,,,,,,,,0,13,13,0,1,,
,,,,,,,stim2/pa+50.wav,5a08c9a7f2e3460001edb063,2021-01-07_11h02.22.059,Hungarian_step4,2020.2.3,Win32,60,,,,,,,,,,,,,,,,,right,0.421825,,,,,,,,0,14,14,9,1,,
,,,,,,,stim2/pa-25.wav,5a08c9a7f2e3460001edb063,2021-01-07_11h02.22.059,Hungarian_step4,2020.2.3,Win32,60,,,,,,,,,,,,,,,,,right,0.49783,,,,,,,,0,15,15,14,1,,
,,,,,,,stim2/pa+40.wav,5a08c9a7f2e3460001edb063,2021-01-07_11h02.22.059,Hungarian_step4,2020.2.3,Win32,60,,,,,,,,,,,,,,,,,left,0.405925,,,,,,,,0,16,16,7,1,,
,,,,,,,stim2/pa+50.wav,5a08c9a7f2e3460001edb063,2021-01-07_11h02.22.059,Hungarian_step4,2020.2.3,Win32,60,,,,,,,,,,,,,,,,,right,0.5651,,,,,,,,1,0,17,9,1,,
,,,,,,,stim2/pa+05.wav,5a08c9a7f2e3460001edb063,2021-01-07_11h02.22.059,Hungarian_step4,2020.2.3,Win32,60,,,,,,,,,,,,,,,,,left,0.414735,,,,,,,,1,1,18,0,1,,
,,,,,,,stim2/pa+40.wav,5a08c9a7f2e3460001edb063,2021-01-07_11h02.22.059,Hungarian_step4,2020.2.3,Win32,60,,,,,,,,,,,,,,,,,right,0.410965,,,,,,,,1,2,19,7,1,,
,,,,,,,stim2/pa-05.wav,5a08c9a7f2e3460001edb063,2021-01-07_11h02.22.059,Hungarian_step4,2020.2.3,Win32,60,,,,,,,,,,,,,,,,,right,0.507275,,,,,,,,1,3,20,10,1,,
,,,,,,,stim2/pa+25.wav,5a08c9a7f2e3460001edb063,2021-01-07_11h02.22.059,Hungarian_step4,2020.2.3,Win32,60,,,,,,,,,,,,,,,,,left,0.396735,,,,,,,,1,4,21,4,1,,
,,,,,,,stim2/pa+10.wav,5a08c9a7f2e3460001edb063,2021-01-07_11h02.22.059,Hungarian_step4,2020.2.3,Win32,60,,,,,,,,,,,,,,,,,right,0.63905,,,,,,,,1,5,22,1,1,,
,,,,,,,stim2/pa-10.wav,5a08c9a7f2e3460001edb063,2021-01-07_11h02.22.059,Hungarian_step4,2020.2.3,Win32,60,,,,,,,,,,,,,,,,,right,0.456085,,,,,,,,1,6,23,11,1,,
,,,,,,,stim2/pa-35.wav,5a08c9a7f2e3460001edb063,2021-01-07_11h02.22.059,Hungarian_step4,2020.2.3,Win32,60,,,,,,,,,,,,,,,,,right,0.46187,,,,,,,,1,7,24,16,1,,
,,,,,,,stim2/pa+35.wav,5a08c9a7f2e3460001edb063,2021-01-07_11h02.22.059,Hungarian_step4,2020.2.3,Win32,60,,,,,,,,,,,,,,,,,left,0.442885,,,,,,,,1,8,25,6,1,,
,,,,,,,stim2/pa+30.wav,5a08c9a7f2e3460001edb063,2021-01-07_11h02.22.059,Hungarian_step4,2020.2.3,Win32,60,,,,,,,,,,,,,,,,,right,0.623775,,,,,,,,1,9,26,5,1,,
,,,,,,,stim2/pa-20.wav,5a08c9a7f2e3460001edb063,2021-01-07_11h02.22.059,Hungarian_step4,2020.2.3,Win32,60,,,,,,,,,,,,,,,,,right,0.622975,,,,,,,,1,10,27,13,1,,
,,,,,,,stim2/pa+20.wav,5a08c9a7f2e3460001edb063,2021-01-07_11h02.22.059,Hungarian_step4,2020.2.3,Win32,60,,,,,,,,,,,,,,,,,left,0.447075,,,,,,,,1,11,28,3,1,,
,,,,,,,stim2/pa+15.wav,5a08c9a7f2e3460001edb063,2021-01-07_11h02.22.059,Hungarian_step4,2020.2.3,Win32,60,,,,,,,,,,,,,,,,,right,0.45462,,,,,,,,1,12,29,2,1,,
,,,,,,,stim2/pa-25.wav,5a08c9a7f2e3460001edb063,2021-01-07_11h02.22.059,Hungarian_step4,2020.2.3,Win32,60,,,,,,,,,,,,,,,,,right,0.407885,,,,,,,,1,13,30,14,1,,
,,,,,,,stim2/pa-15.wav,5a08c9a7f2e3460001edb063,2021-01-07_11h02.22.059,Hungarian_step4,2020.2.3,Win32,60,,,,,,,,,,,,,,,,,right,0.38572,,,,,,,,1,14,31,12,1,,
,,,,,,,stim2/pa-30.wav,5a08c9a7f2e3460001edb063,2021-01-07_11h02.22.059,Hungarian_step4,2020.2.3,Win32,60,,,,,,,,,,,,,,,,,right,0.38541,,,,,,,,1,15,32,15,1,,
,,,,,,,stim2/pa+45.wav,5a08c9a7f2e3460001edb063,2021-01-07_11h02.22.059,Hungarian_step4,2020.2.3,Win32,60,,,,,,,,,,,,,,,,,right,0.507475,,,,,,,,1,16,33,8,1,,
,,,,,,,,5a08c9a7f2e3460001edb063,2021-01-07_11h02.22.059,Hungarian_step4,2020.2.3,Win32,60,,,,,,,,,,,,,,,,,,,,,,,,,,,,,,,space,2.81719
