resp.keys,resp.rt,trials.thisRepN,trials.thisTrialN,trials.thisN,trials.thisIndex,trials.ran,stimuli,participant,date,expName,psychopyVersion,OS,frameRate,gotResponse.keys,gotResponse.rt,resp_2.keys,resp_2.rt,trials_2.thisRepN,trials_2.thisTrialN,trials_2.thisN,trials_2.thisIndex,trials_2.ran,key_resp_3.keys,key_resp_3.rt,trials_4.thisRepN,trials_4.thisTrialN,trials_4.thisN,trials_4.thisIndex,trials_4.ran,resp_3.keys,resp_3.rt,trials_3.thisRepN,trials_3.thisTrialN,trials_3.thisN,trials_3.thisIndex,trials_3.ran,key_resp_2.keys,key_resp_2.rt,trials_5.thisRepN,trials_5.thisTrialN,trials_5.thisN,trials_5.thisIndex,trials_5.ran,key_resp.keys,key_resp.rt
right,2.587245,0,0,0,1,1,stim/VC_11.wav,5f464897fd3e1a000a17db32,2021-01-06_20h02.12.623,Spanish_step2,2020.2.3,Win32,60,,,,,,,,,,,,,,,,,,,,,,,,,,,,,,,,
left,0.815045,0,1,1,0,1,stim/VC_01.wav,5f464897fd3e1a000a17db32,2021-01-06_20h02.12.623,Spanish_step2,2020.2.3,Win32,60,,,,,,,,,,,,,,,,,,,,,,,,,,,,,,,,
,,,,,,,stim/VC_11.wav,5f464897fd3e1a000a17db32,2021-01-06_20h02.12.623,Spanish_step2,2020.2.3,Win32,60,space,2.722125,right,0.891155,0,0,0,10,1,,,,,,,,,,,,,,,,,,,,,,,
,,,,,,,stim/VC_07.wav,5f464897fd3e1a000a17db32,2021-01-06_20h02.12.623,Spanish_step2,2020.2.3,Win32,60,,,right,1.220415,0,1,1,6,1,,,,,,,,,,,,,,,,,,,,,,,
,,,,,,,stim/VC_05.wav,5f464897fd3e1a000a17db32,2021-01-06_20h02.12.623,Spanish_step2,2020.2.3,Win32,60,,,right,1.567775,0,2,2,4,1,,,,,,,,,,,,,,,,,,,,,,,
,,,,,,,stim/VC_08.wav,5f464897fd3e1a000a17db32,2021-01-06_20h02.12.623,Spanish_step2,2020.2.3,Win32,60,,,right,10.5516,0,3,3,7,1,,,,,,,,,,,,,,,,,,,,,,,
,,,,,,,stim/VC_02.wav,5f464897fd3e1a000a17db32,2021-01-06_20h02.12.623,Spanish_step2,2020.2.3,Win32,60,,,left,0.69122,0,4,4,1,1,,,,,,,,,,,,,,,,,,,,,,,
,,,,,,,stim/VC_01.wav,5f464897fd3e1a000a17db32,2021-01-06_20h02.12.623,Spanish_step2,2020.2.3,Win32,60,,,left,0.681365,0,5,5,0,1,,,,,,,,,,,,,,,,,,,,,,,
,,,,,,,stim/VC_10.wav,5f464897fd3e1a000a17db32,2021-01-06_20h02.12.623,Spanish_step2,2020.2.3,Win32,60,,,right,0.54034,0,6,6,9,1,,,,,,,,,,,,,,,,,,,,,,,
,,,,,,,stim/VC_06.wav,5f464897fd3e1a000a17db32,2021-01-06_20h02.12.623,Spanish_step2,2020.2.3,Win32,60,,,right,0.634855,0,7,7,5,1,,,,,,,,,,,,,,,,,,,,,,,
,,,,,,,stim/VC_03.wav,5f464897fd3e1a000a17db32,2021-01-06_20h02.12.623,Spanish_step2,2020.2.3,Win32,60,,,right,0.77454,0,8,8,2,1,,,,,,,,,,,,,,,,,,,,,,,
,,,,,,,stim/VC_04.wav,5f464897fd3e1a000a17db32,2021-01-06_20h02.12.623,Spanish_step2,2020.2.3,Win32,60,,,right,0.61153,0,9,9,3,1,,,,,,,,,,,,,,,,,,,,,,,
,,,,,,,stim/VC_09.wav,5f464897fd3e1a000a17db32,2021-01-06_20h02.12.623,Spanish_step2,2020.2.3,Win32,60,,,right,0.65115,0,10,10,8,1,,,,,,,,,,,,,,,,,,,,,,,
,,,,,,,stim/VC_06.wav,5f464897fd3e1a000a17db32,2021-01-06_20h02.12.623,Spanish_step2,2020.2.3,Win32,60,,,right,0.567615,1,0,11,5,1,,,,,,,,,,,,,,,,,,,,,,,
,,,,,,,stim/VC_08.wav,5f464897fd3e1a000a17db32,2021-01-06_20h02.12.623,Spanish_step2,2020.2.3,Win32,60,,,right,0.518795,1,1,12,7,1,,,,,,,,,,,,,,,,,,,,,,,
,,,,,,,stim/VC_02.wav,5f464897fd3e1a000a17db32,2021-01-06_20h02.12.623,Spanish_step2,2020.2.3,Win32,60,,,left,0.4742,1,2,13,1,1,,,,,,,,,,,,,,,,,,,,,,,
,,,,,,,stim/VC_07.wav,5f464897fd3e1a000a17db32,2021-01-06_20h02.12.623,Spanish_step2,2020.2.3,Win32,60,,,right,0.499805,1,3,14,6,1,,,,,,,,,,,,,,,,,,,,,,,
,,,,,,,stim/VC_10.wav,5f464897fd3e1a000a17db32,2021-01-06_20h02.12.623,Spanish_step2,2020.2.3,Win32,60,,,right,0.584125,1,4,15,9,1,,,,,,,,,,,,,,,,,,,,,,,
,,,,,,,stim/VC_11.wav,5f464897fd3e1a000a17db32,2021-01-06_20h02.12.623,Spanish_step2,2020.2.3,Win32,60,,,right,0.566425,1,5,16,10,1,,,,,,,,,,,,,,,,,,,,,,,
,,,,,,,stim/VC_09.wav,5f464897fd3e1a000a17db32,2021-01-06_20h02.12.623,Spanish_step2,2020.2.3,Win32,60,,,right,0.434335,1,6,17,8,1,,,,,,,,,,,,,,,,,,,,,,,
,,,,,,,stim/VC_05.wav,5f464897fd3e1a000a17db32,2021-01-06_20h02.12.623,Spanish_step2,2020.2.3,Win32,60,,,left,0.64458,1,7,18,4,1,,,,,,,,,,,,,,,,,,,,,,,
,,,,,,,stim/VC_04.wav,5f464897fd3e1a000a17db32,2021-01-06_20h02.12.623,Spanish_step2,2020.2.3,Win32,60,,,left,0.65933,1,8,19,3,1,,,,,,,,,,,,,,,,,,,,,,,
,,,,,,,stim/VC_01.wav,5f464897fd3e1a000a17db32,2021-01-06_20h02.12.623,Spanish_step2,2020.2.3,Win32,60,,,left,0.56769,1,9,20,0,1,,,,,,,,,,,,,,,,,,,,,,,
,,,,,,,stim/VC_03.wav,5f464897fd3e1a000a17db32,2021-01-06_20h02.12.623,Spanish_step2,2020.2.3,Win32,60,,,left,0.508685,1,10,21,2,1,,,,,,,,,,,,,,,,,,,,,,,
,,,,,,,stim/VC_09.wav,5f464897fd3e1a000a17db32,2021-01-06_20h02.12.623,Spanish_step2,2020.2.3,Win32,60,,,right,0.516125,2,0,22,8,1,,,,,,,,,,,,,,,,,,,,,,,
,,,,,,,stim/VC_10.wav,5f464897fd3e1a000a17db32,2021-01-06_20h02.12.623,Spanish_step2,2020.2.3,Win32,60,,,right,0.501105,2,1,23,9,1,,,,,,,,,,,,,,,,,,,,,,,
,,,,,,,stim/VC_04.wav,5f464897fd3e1a000a17db32,2021-01-06_20h02.12.623,Spanish_step2,2020.2.3,Win32,60,,,left,0.620585,2,2,24,3,1,,,,,,,,,,,,,,,,,,,,,,,
,,,,,,,stim/VC_01.wav,5f464897fd3e1a000a17db32,2021-01-06_20h02.12.623,Spanish_step2,2020.2.3,Win32,60,,,left,0.50055,2,3,25,0,1,,,,,,,,,,,,,,,,,,,,,,,
,,,,,,,stim/VC_05.wav,5f464897fd3e1a000a17db32,2021-01-06_20h02.12.623,Spanish_step2,2020.2.3,Win32,60,,,right,0.746985,2,4,26,4,1,,,,,,,,,,,,,,,,,,,,,,,
,,,,,,,stim/VC_02.wav,5f464897fd3e1a000a17db32,2021-01-06_20h02.12.623,Spanish_step2,2020.2.3,Win32,60,,,left,0.545765,2,5,27,1,1,,,,,,,,,,,,,,,,,,,,,,,
,,,,,,,stim/VC_03.wav,5f464897fd3e1a000a17db32,2021-01-06_20h02.12.623,Spanish_step2,2020.2.3,Win32,60,,,left,0.532015,2,6,28,2,1,,,,,,,,,,,,,,,,,,,,,,,
,,,,,,,stim/VC_06.wav,5f464897fd3e1a000a17db32,2021-01-06_20h02.12.623,Spanish_step2,2020.2.3,Win32,60,,,right,0.489305,2,7,29,5,1,,,,,,,,,,,,,,,,,,,,,,,
,,,,,,,stim/VC_08.wav,5f464897fd3e1a000a17db32,2021-01-06_20h02.12.623,Spanish_step2,2020.2.3,Win32,60,,,right,0.60132,2,8,30,7,1,,,,,,,,,,,,,,,,,,,,,,,
,,,,,,,stim/VC_07.wav,5f464897fd3e1a000a17db32,2021-01-06_20h02.12.623,Spanish_step2,2020.2.3,Win32,60,,,right,0.596005,2,9,31,6,1,,,,,,,,,,,,,,,,,,,,,,,
,,,,,,,stim/VC_11.wav,5f464897fd3e1a000a17db32,2021-01-06_20h02.12.623,Spanish_step2,2020.2.3,Win32,60,,,right,0.45972,2,10,32,10,1,,,,,,,,,,,,,,,,,,,,,,,
,,,,,,,stim/VC_02.wav,5f464897fd3e1a000a17db32,2021-01-06_20h02.12.623,Spanish_step2,2020.2.3,Win32,60,,,left,0.64008,,,,,,7,6.217825,0,0,0,1,1,,,,,,,,,,,,,,,,
,,,,,,,stim/VC_03.wav,5f464897fd3e1a000a17db32,2021-01-06_20h02.12.623,Spanish_step2,2020.2.3,Win32,60,,,left,0.48468,,,,,,,,0,1,1,2,1,,,,,,,,,,,,,,,,
,,,,,,,stim/VC_08.wav,5f464897fd3e1a000a17db32,2021-01-06_20h02.12.623,Spanish_step2,2020.2.3,Win32,60,,,right,0.601545,,,,,,,,0,2,2,7,1,,,,,,,,,,,,,,,,
,,,,,,,stim/VC_06.wav,5f464897fd3e1a000a17db32,2021-01-06_20h02.12.623,Spanish_step2,2020.2.3,Win32,60,,,right,0.51811,,,,,,,,0,3,3,5,1,,,,,,,,,,,,,,,,
,,,,,,,stim/VC_01.wav,5f464897fd3e1a000a17db32,2021-01-06_20h02.12.623,Spanish_step2,2020.2.3,Win32,60,,,right,0.368185,,,,,,,,0,4,4,0,1,,,,,,,,,,,,,,,,
,,,,,,,stim/VC_09.wav,5f464897fd3e1a000a17db32,2021-01-06_20h02.12.623,Spanish_step2,2020.2.3,Win32,60,,,right,0.51693,,,,,,,,0,5,5,8,1,,,,,,,,,,,,,,,,
,,,,,,,stim/VC_05.wav,5f464897fd3e1a000a17db32,2021-01-06_20h02.12.623,Spanish_step2,2020.2.3,Win32,60,,,right,0.54018,,,,,,,,0,6,6,4,1,,,,,,,,,,,,,,,,
,,,,,,,stim/VC_10.wav,5f464897fd3e1a000a17db32,2021-01-06_20h02.12.623,Spanish_step2,2020.2.3,Win32,60,,,right,0.72266,,,,,,,,0,7,7,9,1,,,,,,,,,,,,,,,,
,,,,,,,stim/VC_07.wav,5f464897fd3e1a000a17db32,2021-01-06_20h02.12.623,Spanish_step2,2020.2.3,Win32,60,,,right,0.619725,,,,,,,,0,8,8,6,1,,,,,,,,,,,,,,,,
,,,,,,,stim/VC_04.wav,5f464897fd3e1a000a17db32,2021-01-06_20h02.12.623,Spanish_step2,2020.2.3,Win32,60,,,left,0.611355,,,,,,,,0,9,9,3,1,,,,,,,,,,,,,,,,
,,,,,,,stim/VC_11.wav,5f464897fd3e1a000a17db32,2021-01-06_20h02.12.623,Spanish_step2,2020.2.3,Win32,60,,,right,0.58418,,,,,,,,0,10,10,10,1,,,,,,,,,,,,,,,,
,,,,,,,stim/VC_06.wav,5f464897fd3e1a000a17db32,2021-01-06_20h02.12.623,Spanish_step2,2020.2.3,Win32,60,,,right,0.469335,,,,,,,,1,0,11,5,1,,,,,,,,,,,,,,,,
,,,,,,,stim/VC_03.wav,5f464897fd3e1a000a17db32,2021-01-06_20h02.12.623,Spanish_step2,2020.2.3,Win32,60,,,left,0.483505,,,,,,,,1,1,12,2,1,,,,,,,,,,,,,,,,
,,,,,,,stim/VC_01.wav,5f464897fd3e1a000a17db32,2021-01-06_20h02.12.623,Spanish_step2,2020.2.3,Win32,60,,,left,0.438035,,,,,,,,1,2,13,0,1,,,,,,,,,,,,,,,,
,,,,,,,stim/VC_11.wav,5f464897fd3e1a000a17db32,2021-01-06_20h02.12.623,Spanish_step2,2020.2.3,Win32,60,,,right,0.561225,,,,,,,,1,3,14,10,1,,,,,,,,,,,,,,,,
,,,,,,,stim/VC_07.wav,5f464897fd3e1a000a17db32,2021-01-06_20h02.12.623,Spanish_step2,2020.2.3,Win32,60,,,left,0.78072,,,,,,,,1,4,15,6,1,,,,,,,,,,,,,,,,
,,,,,,,stim/VC_08.wav,5f464897fd3e1a000a17db32,2021-01-06_20h02.12.623,Spanish_step2,2020.2.3,Win32,60,,,right,0.94955,,,,,,,,1,5,16,7,1,,,,,,,,,,,,,,,,
,,,,,,,stim/VC_09.wav,5f464897fd3e1a000a17db32,2021-01-06_20h02.12.623,Spanish_step2,2020.2.3,Win32,60,,,right,0.502155,,,,,,,,1,6,17,8,1,,,,,,,,,,,,,,,,
,,,,,,,stim/VC_10.wav,5f464897fd3e1a000a17db32,2021-01-06_20h02.12.623,Spanish_step2,2020.2.3,Win32,60,,,right,0.470355,,,,,,,,1,7,18,9,1,,,,,,,,,,,,,,,,
,,,,,,,stim/VC_02.wav,5f464897fd3e1a000a17db32,2021-01-06_20h02.12.623,Spanish_step2,2020.2.3,Win32,60,,,left,0.397375,,,,,,,,1,8,19,1,1,,,,,,,,,,,,,,,,
,,,,,,,stim/VC_05.wav,5f464897fd3e1a000a17db32,2021-01-06_20h02.12.623,Spanish_step2,2020.2.3,Win32,60,,,left,0.5056,,,,,,,,1,9,20,4,1,,,,,,,,,,,,,,,,
,,,,,,,stim/VC_04.wav,5f464897fd3e1a000a17db32,2021-01-06_20h02.12.623,Spanish_step2,2020.2.3,Win32,60,,,left,0.559215,,,,,,,,1,10,21,3,1,,,,,,,,,,,,,,,,
,,,,,,,stim2/pa-15.wav,5f464897fd3e1a000a17db32,2021-01-06_20h02.12.623,Spanish_step2,2020.2.3,Win32,60,,,,,,,,,,,,,,,,,right,1.50576,0,0,0,12,1,,,,,,,,,
,,,,,,,stim2/pa-10.wav,5f464897fd3e1a000a17db32,2021-01-06_20h02.12.623,Spanish_step2,2020.2.3,Win32,60,,,,,,,,,,,,,,,,,right,0.722625,0,1,1,11,1,,,,,,,,,
,,,,,,,stim2/pa+45.wav,5f464897fd3e1a000a17db32,2021-01-06_20h02.12.623,Spanish_step2,2020.2.3,Win32,60,,,,,,,,,,,,,,,,,left,0.769615,0,2,2,8,1,,,,,,,,,
,,,,,,,stim2/pa+35.wav,5f464897fd3e1a000a17db32,2021-01-06_20h02.12.623,Spanish_step2,2020.2.3,Win32,60,,,,,,,,,,,,,,,,,left,0.518955,0,3,3,6,1,,,,,,,,,
,,,,,,,stim2/pa-35.wav,5f464897fd3e1a000a17db32,2021-01-06_20h02.12.623,Spanish_step2,2020.2.3,Win32,60,,,,,,,,,,,,,,,,,right,0.757325,0,4,4,16,1,,,,,,,,,
,,,,,,,stim2/pa+25.wav,5f464897fd3e1a000a17db32,2021-01-06_20h02.12.623,Spanish_step2,2020.2.3,Win32,60,,,,,,,,,,,,,,,,,left,0.47201,0,5,5,4,1,,,,,,,,,
,,,,,,,stim2/pa+15.wav,5f464897fd3e1a000a17db32,2021-01-06_20h02.12.623,Spanish_step2,2020.2.3,Win32,60,,,,,,,,,,,,,,,,,left,0.707535,0,6,6,2,1,,,,,,,,,
,,,,,,,stim2/pa-20.wav,5f464897fd3e1a000a17db32,2021-01-06_20h02.12.623,Spanish_step2,2020.2.3,Win32,60,,,,,,,,,,,,,,,,,right,0.532825,0,7,7,13,1,,,,,,,,,
,,,,,,,stim2/pa-05.wav,5f464897fd3e1a000a17db32,2021-01-06_20h02.12.623,Spanish_step2,2020.2.3,Win32,60,,,,,,,,,,,,,,,,,right,0.667925,0,8,8,10,1,,,,,,,,,
,,,,,,,stim2/pa+50.wav,5f464897fd3e1a000a17db32,2021-01-06_20h02.12.623,Spanish_step2,2020.2.3,Win32,60,,,,,,,,,,,,,,,,,left,0.55424,0,9,9,9,1,,,,,,,,,
,,,,,,,stim2/pa+30.wav,5f464897fd3e1a000a17db32,2021-01-06_20h02.12.623,Spanish_step2,2020.2.3,Win32,60,,,,,,,,,,,,,,,,,left,0.601505,0,10,10,5,1,,,,,,,,,
,,,,,,,stim2/pa+05.wav,5f464897fd3e1a000a17db32,2021-01-06_20h02.12.623,Spanish_step2,2020.2.3,Win32,60,,,,,,,,,,,,,,,,,right,0.553135,0,11,11,0,1,,,,,,,,,
,,,,,,,stim2/pa-30.wav,5f464897fd3e1a000a17db32,2021-01-06_20h02.12.623,Spanish_step2,2020.2.3,Win32,60,,,,,,,,,,,,,,,,,right,0.571345,0,12,12,15,1,,,,,,,,,
,,,,,,,stim2/pa-25.wav,5f464897fd3e1a000a17db32,2021-01-06_20h02.12.623,Spanish_step2,2020.2.3,Win32,60,,,,,,,,,,,,,,,,,right,0.440555,0,13,13,14,1,,,,,,,,,
,,,,,,,stim2/pa+40.wav,5f464897fd3e1a000a17db32,2021-01-06_20h02.12.623,Spanish_step2,2020.2.3,Win32,60,,,,,,,,,,,,,,,,,right,0.768555,0,14,14,7,1,,,,,,,,,
,,,,,,,stim2/pa+10.wav,5f464897fd3e1a000a17db32,2021-01-06_20h02.12.623,Spanish_step2,2020.2.3,Win32,60,,,,,,,,,,,,,,,,,right,0.57359,0,15,15,1,1,,,,,,,,,
,,,,,,,stim2/pa+20.wav,5f464897fd3e1a000a17db32,2021-01-06_20h02.12.623,Spanish_step2,2020.2.3,Win32,60,,,,,,,,,,,,,,,,,right,0.603045,0,16,16,3,1,,,,,,,,,
,,,,,,,stim2/pa+50.wav,5f464897fd3e1a000a17db32,2021-01-06_20h02.12.623,Spanish_step2,2020.2.3,Win32,60,,,,,,,,,,,,,,,,,left,0.68943,1,0,17,9,1,,,,,,,,,
,,,,,,,stim2/pa+05.wav,5f464897fd3e1a000a17db32,2021-01-06_20h02.12.623,Spanish_step2,2020.2.3,Win32,60,,,,,,,,,,,,,,,,,right,0.52096,1,1,18,0,1,,,,,,,,,
,,,,,,,stim2/pa-25.wav,5f464897fd3e1a000a17db32,2021-01-06_20h02.12.623,Spanish_step2,2020.2.3,Win32,60,,,,,,,,,,,,,,,,,right,0.46845,1,2,19,14,1,,,,,,,,,
,,,,,,,stim2/pa-35.wav,5f464897fd3e1a000a17db32,2021-01-06_20h02.12.623,Spanish_step2,2020.2.3,Win32,60,,,,,,,,,,,,,,,,,right,0.45899,1,3,20,16,1,,,,,,,,,
,,,,,,,stim2/pa-05.wav,5f464897fd3e1a000a17db32,2021-01-06_20h02.12.623,Spanish_step2,2020.2.3,Win32,60,,,,,,,,,,,,,,,,,right,0.706095,1,4,21,10,1,,,,,,,,,
,,,,,,,stim2/pa-30.wav,5f464897fd3e1a000a17db32,2021-01-06_20h02.12.623,Spanish_step2,2020.2.3,Win32,60,,,,,,,,,,,,,,,,,right,0.48647,1,5,22,15,1,,,,,,,,,
,,,,,,,stim2/pa-10.wav,5f464897fd3e1a000a17db32,2021-01-06_20h02.12.623,Spanish_step2,2020.2.3,Win32,60,,,,,,,,,,,,,,,,,right,1.0443,1,6,23,11,1,,,,,,,,,
,,,,,,,stim2/pa+45.wav,5f464897fd3e1a000a17db32,2021-01-06_20h02.12.623,Spanish_step2,2020.2.3,Win32,60,,,,,,,,,,,,,,,,,left,1.02499,1,7,24,8,1,,,,,,,,,
,,,,,,,stim2/pa+40.wav,5f464897fd3e1a000a17db32,2021-01-06_20h02.12.623,Spanish_step2,2020.2.3,Win32,60,,,,,,,,,,,,,,,,,right,0.61994,1,8,25,7,1,,,,,,,,,
,,,,,,,stim2/pa-20.wav,5f464897fd3e1a000a17db32,2021-01-06_20h02.12.623,Spanish_step2,2020.2.3,Win32,60,,,,,,,,,,,,,,,,,right,0.66088,1,9,26,13,1,,,,,,,,,
,,,,,,,stim2/pa+25.wav,5f464897fd3e1a000a17db32,2021-01-06_20h02.12.623,Spanish_step2,2020.2.3,Win32,60,,,,,,,,,,,,,,,,,left,0.474255,1,10,27,4,1,,,,,,,,,
,,,,,,,stim2/pa+35.wav,5f464897fd3e1a000a17db32,2021-01-06_20h02.12.623,Spanish_step2,2020.2.3,Win32,60,,,,,,,,,,,,,,,,,left,0.521335,1,11,28,6,1,,,,,,,,,
,,,,,,,stim2/pa+30.wav,5f464897fd3e1a000a17db32,2021-01-06_20h02.12.623,Spanish_step2,2020.2.3,Win32,60,,,,,,,,,,,,,,,,,left,0.36867,1,12,29,5,1,,,,,,,,,
,,,,,,,stim2/pa+20.wav,5f464897fd3e1a000a17db32,2021-01-06_20h02.12.623,Spanish_step2,2020.2.3,Win32,60,,,,,,,,,,,,,,,,,left,0.44007,1,13,30,3,1,,,,,,,,,
,,,,,,,stim2/pa+15.wav,5f464897fd3e1a000a17db32,2021-01-06_20h02.12.623,Spanish_step2,2020.2.3,Win32,60,,,,,,,,,,,,,,,,,left,0.418305,1,14,31,2,1,,,,,,,,,
,,,,,,,stim2/pa+10.wav,5f464897fd3e1a000a17db32,2021-01-06_20h02.12.623,Spanish_step2,2020.2.3,Win32,60,,,,,,,,,,,,,,,,,left,0.377805,1,15,32,1,1,,,,,,,,,
,,,,,,,stim2/pa-15.wav,5f464897fd3e1a000a17db32,2021-01-06_20h02.12.623,Spanish_step2,2020.2.3,Win32,60,,,,,,,,,,,,,,,,,left,0.39768,1,16,33,12,1,,,,,,,,,
,,,,,,,stim2/pa-30.wav,5f464897fd3e1a000a17db32,2021-01-06_20h02.12.623,Spanish_step2,2020.2.3,Win32,60,,,,,,,,,,,,,,,,,right,0.705665,2,0,34,15,1,,,,,,,,,
,,,,,,,stim2/pa-20.wav,5f464897fd3e1a000a17db32,2021-01-06_20h02.12.623,Spanish_step2,2020.2.3,Win32,60,,,,,,,,,,,,,,,,,right,0.576165,2,1,35,13,1,,,,,,,,,
,,,,,,,stim2/pa+45.wav,5f464897fd3e1a000a17db32,2021-01-06_20h02.12.623,Spanish_step2,2020.2.3,Win32,60,,,,,,,,,,,,,,,,,left,0.52083,2,2,36,8,1,,,,,,,,,
,,,,,,,stim2/pa+50.wav,5f464897fd3e1a000a17db32,2021-01-06_20h02.12.623,Spanish_step2,2020.2.3,Win32,60,,,,,,,,,,,,,,,,,left,0.574055,2,3,37,9,1,,,,,,,,,
,,,,,,,stim2/pa+05.wav,5f464897fd3e1a000a17db32,2021-01-06_20h02.12.623,Spanish_step2,2020.2.3,Win32,60,,,,,,,,,,,,,,,,,right,0.53732,2,4,38,0,1,,,,,,,,,
,,,,,,,stim2/pa+10.wav,5f464897fd3e1a000a17db32,2021-01-06_20h02.12.623,Spanish_step2,2020.2.3,Win32,60,,,,,,,,,,,,,,,,,left,0.533565,2,5,39,1,1,,,,,,,,,
,,,,,,,stim2/pa+15.wav,5f464897fd3e1a000a17db32,2021-01-06_20h02.12.623,Spanish_step2,2020.2.3,Win32,60,,,,,,,,,,,,,,,,,right,0.46982,2,6,40,2,1,,,,,,,,,
,,,,,,,stim2/pa+30.wav,5f464897fd3e1a000a17db32,2021-01-06_20h02.12.623,Spanish_step2,2020.2.3,Win32,60,,,,,,,,,,,,,,,,,left,0.553895,2,7,41,5,1,,,,,,,,,
,,,,,,,stim2/pa+40.wav,5f464897fd3e1a000a17db32,2021-01-06_20h02.12.623,Spanish_step2,2020.2.3,Win32,60,,,,,,,,,,,,,,,,,left,0.306875,2,8,42,7,1,,,,,,,,,
,,,,,,,stim2/pa+35.wav,5f464897fd3e1a000a17db32,2021-01-06_20h02.12.623,Spanish_step2,2020.2.3,Win32,60,,,,,,,,,,,,,,,,,left,0.486635,2,9,43,6,1,,,,,,,,,
,,,,,,,stim2/pa-10.wav,5f464897fd3e1a000a17db32,2021-01-06_20h02.12.623,Spanish_step2,2020.2.3,Win32,60,,,,,,,,,,,,,,,,,right,0.60989,2,10,44,11,1,,,,,,,,,
,,,,,,,stim2/pa-35.wav,5f464897fd3e1a000a17db32,2021-01-06_20h02.12.623,Spanish_step2,2020.2.3,Win32,60,,,,,,,,,,,,,,,,,right,0.51807,2,11,45,16,1,,,,,,,,,
,,,,,,,stim2/pa-05.wav,5f464897fd3e1a000a17db32,2021-01-06_20h02.12.623,Spanish_step2,2020.2.3,Win32,60,,,,,,,,,,,,,,,,,right,0.55825,2,12,46,10,1,,,,,,,,,
,,,,,,,stim2/pa+20.wav,5f464897fd3e1a000a17db32,2021-01-06_20h02.12.623,Spanish_step2,2020.2.3,Win32,60,,,,,,,,,,,,,,,,,right,0.33866,2,13,47,3,1,,,,,,,,,
,,,,,,,stim2/pa-25.wav,5f464897fd3e1a000a17db32,2021-01-06_20h02.12.623,Spanish_step2,2020.2.3,Win32,60,,,,,,,,,,,,,,,,,right,0.44367,2,14,48,14,1,,,,,,,,,
,,,,,,,stim2/pa-15.wav,5f464897fd3e1a000a17db32,2021-01-06_20h02.12.623,Spanish_step2,2020.2.3,Win32,60,,,,,,,,,,,,,,,,,right,0.457235,2,15,49,12,1,,,,,,,,,
,,,,,,,stim2/pa+25.wav,5f464897fd3e1a000a17db32,2021-01-06_20h02.12.623,Spanish_step2,2020.2.3,Win32,60,,,,,,,,,,,,,,,,,right,0.4035,2,16,50,4,1,,,,,,,,,
,,,,,,,stim2/pa-20.wav,5f464897fd3e1a000a17db32,2021-01-06_20h02.12.623,Spanish_step2,2020.2.3,Win32,60,,,,,,,,,,,,,,,,,right,0.63569,,,,,,z,1.964565,0,0,0,13,1,,
,,,,,,,stim2/pa-25.wav,5f464897fd3e1a000a17db32,2021-01-06_20h02.12.623,Spanish_step2,2020.2.3,Win32,60,,,,,,,,,,,,,,,,,right,0.517175,,,,,,,,0,1,1,14,1,,
,,,,,,,stim2/pa+30.wav,5f464897fd3e1a000a17db32,2021-01-06_20h02.12.623,Spanish_step2,2020.2.3,Win32,60,,,,,,,,,,,,,,,,,right,0.50023,,,,,,,,0,2,2,5,1,,
,,,,,,,stim2/pa-35.wav,5f464897fd3e1a000a17db32,2021-01-06_20h02.12.623,Spanish_step2,2020.2.3,Win32,60,,,,,,,,,,,,,,,,,right,0.533415,,,,,,,,0,3,3,16,1,,
,,,,,,,stim2/pa-10.wav,5f464897fd3e1a000a17db32,2021-01-06_20h02.12.623,Spanish_step2,2020.2.3,Win32,60,,,,,,,,,,,,,,,,,right,0.355135,,,,,,,,0,4,4,11,1,,
,,,,,,,stim2/pa+15.wav,5f464897fd3e1a000a17db32,2021-01-06_20h02.12.623,Spanish_step2,2020.2.3,Win32,60,,,,,,,,,,,,,,,,,right,0.34083,,,,,,,,0,5,5,2,1,,
,,,,,,,stim2/pa+05.wav,5f464897fd3e1a000a17db32,2021-01-06_20h02.12.623,Spanish_step2,2020.2.3,Win32,60,,,,,,,,,,,,,,,,,right,0.401365,,,,,,,,0,6,6,0,1,,
,,,,,,,stim2/pa+50.wav,5f464897fd3e1a000a17db32,2021-01-06_20h02.12.623,Spanish_step2,2020.2.3,Win32,60,,,,,,,,,,,,,,,,,right,0.359625,,,,,,,,0,7,7,9,1,,
,,,,,,,stim2/pa+40.wav,5f464897fd3e1a000a17db32,2021-01-06_20h02.12.623,Spanish_step2,2020.2.3,Win32,60,,,,,,,,,,,,,,,,,left,0.95141,,,,,,,,0,8,8,7,1,,
,,,,,,,stim2/pa-30.wav,5f464897fd3e1a000a17db32,2021-01-06_20h02.12.623,Spanish_step2,2020.2.3,Win32,60,,,,,,,,,,,,,,,,,right,0.42657,,,,,,,,0,9,9,15,1,,
,,,,,,,stim2/pa+25.wav,5f464897fd3e1a000a17db32,2021-01-06_20h02.12.623,Spanish_step2,2020.2.3,Win32,60,,,,,,,,,,,,,,,,,right,0.38815,,,,,,,,0,10,10,4,1,,
,,,,,,,stim2/pa+10.wav,5f464897fd3e1a000a17db32,2021-01-06_20h02.12.623,Spanish_step2,2020.2.3,Win32,60,,,,,,,,,,,,,,,,,left,0.61322,,,,,,,,0,11,11,1,1,,
,,,,,,,stim2/pa+20.wav,5f464897fd3e1a000a17db32,2021-01-06_20h02.12.623,Spanish_step2,2020.2.3,Win32,60,,,,,,,,,,,,,,,,,left,0.483385,,,,,,,,0,12,12,3,1,,
,,,,,,,stim2/pa+35.wav,5f464897fd3e1a000a17db32,2021-01-06_20h02.12.623,Spanish_step2,2020.2.3,Win32,60,,,,,,,,,,,,,,,,,left,0.42461,,,,,,,,0,13,13,6,1,,
,,,,,,,stim2/pa+45.wav,5f464897fd3e1a000a17db32,2021-01-06_20h02.12.623,Spanish_step2,2020.2.3,Win32,60,,,,,,,,,,,,,,,,,left,0.36715,,,,,,,,0,14,14,8,1,,
,,,,,,,stim2/pa-05.wav,5f464897fd3e1a000a17db32,2021-01-06_20h02.12.623,Spanish_step2,2020.2.3,Win32,60,,,,,,,,,,,,,,,,,right,0.616175,,,,,,,,0,15,15,10,1,,
,,,,,,,stim2/pa-15.wav,5f464897fd3e1a000a17db32,2021-01-06_20h02.12.623,Spanish_step2,2020.2.3,Win32,60,,,,,,,,,,,,,,,,,right,0.64075,,,,,,,,0,16,16,12,1,,
,,,,,,,stim2/pa-35.wav,5f464897fd3e1a000a17db32,2021-01-06_20h02.12.623,Spanish_step2,2020.2.3,Win32,60,,,,,,,,,,,,,,,,,right,0.36419,,,,,,,,1,0,17,16,1,,
,,,,,,,stim2/pa+50.wav,5f464897fd3e1a000a17db32,2021-01-06_20h02.12.623,Spanish_step2,2020.2.3,Win32,60,,,,,,,,,,,,,,,,,right,0.435095,,,,,,,,1,1,18,9,1,,
,,,,,,,stim2/pa+05.wav,5f464897fd3e1a000a17db32,2021-01-06_20h02.12.623,Spanish_step2,2020.2.3,Win32,60,,,,,,,,,,,,,,,,,right,0.463345,,,,,,,,1,2,19,0,1,,
,,,,,,,stim2/pa+10.wav,5f464897fd3e1a000a17db32,2021-01-06_20h02.12.623,Spanish_step2,2020.2.3,Win32,60,,,,,,,,,,,,,,,,,right,0.29344,,,,,,,,1,3,20,1,1,,
,,,,,,,stim2/pa-30.wav,5f464897fd3e1a000a17db32,2021-01-06_20h02.12.623,Spanish_step2,2020.2.3,Win32,60,,,,,,,,,,,,,,,,,right,0.684005,,,,,,,,1,4,21,15,1,,
,,,,,,,stim2/pa+40.wav,5f464897fd3e1a000a17db32,2021-01-06_20h02.12.623,Spanish_step2,2020.2.3,Win32,60,,,,,,,,,,,,,,,,,left,0.341115,,,,,,,,1,5,22,7,1,,
,,,,,,,stim2/pa+35.wav,5f464897fd3e1a000a17db32,2021-01-06_20h02.12.623,Spanish_step2,2020.2.3,Win32,60,,,,,,,,,,,,,,,,,right,0.16481,,,,,,,,1,6,23,6,1,,
,,,,,,,stim2/pa+25.wav,5f464897fd3e1a000a17db32,2021-01-06_20h02.12.623,Spanish_step2,2020.2.3,Win32,60,,,,,,,,,,,,,,,,,left,1.580785,,,,,,,,1,7,24,4,1,,
,,,,,,,stim2/pa+15.wav,5f464897fd3e1a000a17db32,2021-01-06_20h02.12.623,Spanish_step2,2020.2.3,Win32,60,,,,,,,,,,,,,,,,,right,1.20033,,,,,,,,1,8,25,2,1,,
,,,,,,,stim2/pa-05.wav,5f464897fd3e1a000a17db32,2021-01-06_20h02.12.623,Spanish_step2,2020.2.3,Win32,60,,,,,,,,,,,,,,,,,right,0.958485,,,,,,,,1,9,26,10,1,,
,,,,,,,stim2/pa+30.wav,5f464897fd3e1a000a17db32,2021-01-06_20h02.12.623,Spanish_step2,2020.2.3,Win32,60,,,,,,,,,,,,,,,,,right,2.01671,,,,,,,,1,10,27,5,1,,
,,,,,,,stim2/pa-10.wav,5f464897fd3e1a000a17db32,2021-01-06_20h02.12.623,Spanish_step2,2020.2.3,Win32,60,,,,,,,,,,,,,,,,,right,0.50841,,,,,,,,1,11,28,11,1,,
,,,,,,,stim2/pa+20.wav,5f464897fd3e1a000a17db32,2021-01-06_20h02.12.623,Spanish_step2,2020.2.3,Win32,60,,,,,,,,,,,,,,,,,left,0.615985,,,,,,,,1,12,29,3,1,,
,,,,,,,stim2/pa-20.wav,5f464897fd3e1a000a17db32,2021-01-06_20h02.12.623,Spanish_step2,2020.2.3,Win32,60,,,,,,,,,,,,,,,,,right,0.41814,,,,,,,,1,13,30,13,1,,
,,,,,,,stim2/pa-25.wav,5f464897fd3e1a000a17db32,2021-01-06_20h02.12.623,Spanish_step2,2020.2.3,Win32,60,,,,,,,,,,,,,,,,,right,0.54674,,,,,,,,1,14,31,14,1,,
,,,,,,,stim2/pa+45.wav,5f464897fd3e1a000a17db32,2021-01-06_20h02.12.623,Spanish_step2,2020.2.3,Win32,60,,,,,,,,,,,,,,,,,left,0.733965,,,,,,,,1,15,32,8,1,,
,,,,,,,stim2/pa-15.wav,5f464897fd3e1a000a17db32,2021-01-06_20h02.12.623,Spanish_step2,2020.2.3,Win32,60,,,,,,,,,,,,,,,,,right,0.637465,,,,,,,,1,16,33,12,1,,
,,,,,,,,5f464897fd3e1a000a17db32,2021-01-06_20h02.12.623,Spanish_step2,2020.2.3,Win32,60,,,,,,,,,,,,,,,,,,,,,,,,,,,,,,,space,2.074695
