resp.keys,resp.rt,trials.thisRepN,trials.thisTrialN,trials.thisN,trials.thisIndex,trials.ran,stimuli,participant,date,expName,psychopyVersion,OS,frameRate,gotResponse.keys,gotResponse.rt,resp_2.keys,resp_2.rt,trials_2.thisRepN,trials_2.thisTrialN,trials_2.thisN,trials_2.thisIndex,trials_2.ran,key_resp_3.keys,key_resp_3.corr,key_resp_3.rt,trials_4.thisRepN,trials_4.thisTrialN,trials_4.thisN,trials_4.thisIndex,trials_4.ran,resp_3.keys,resp_3.rt,trials_3.thisRepN,trials_3.thisTrialN,trials_3.thisN,trials_3.thisIndex,trials_3.ran,key_resp_2.keys,key_resp_2.rt,trials_5.thisRepN,trials_5.thisTrialN,trials_5.thisN,trials_5.thisIndex,trials_5.ran,key_resp.keys,key_resp.rt
right,1.509524999,0,0,0,1,1,stim/VC_11.wav,5ec28db2622c500632dc95bc,2021-01-01_19h02.08.931,English_step1,2020.2.3,Win32,60,,,,,,,,,,,,,,,,,,,,,,,,,,,,,,,,,
right,1.69999,0,1,1,0,1,stim/VC_01.wav,5ec28db2622c500632dc95bc,2021-01-01_19h02.08.931,English_step1,2020.2.3,Win32,60,,,,,,,,,,,,,,,,,,,,,,,,,,,,,,,,,
,,,,,,,stim/VC_06.wav,5ec28db2622c500632dc95bc,2021-01-01_19h02.08.931,English_step1,2020.2.3,Win32,60,space,8.875425001,right,1.46892,0,0,0,5,1,,,,,,,,,,,,,,,,,,,,,,,,
,,,,,,,stim/VC_02.wav,5ec28db2622c500632dc95bc,2021-01-01_19h02.08.931,English_step1,2020.2.3,Win32,60,,,right,0.967685,0,1,1,1,1,,,,,,,,,,,,,,,,,,,,,,,,
,,,,,,,stim/VC_08.wav,5ec28db2622c500632dc95bc,2021-01-01_19h02.08.931,English_step1,2020.2.3,Win32,60,,,right,1.916095,0,2,2,7,1,,,,,,,,,,,,,,,,,,,,,,,,
,,,,,,,stim/VC_10.wav,5ec28db2622c500632dc95bc,2021-01-01_19h02.08.931,English_step1,2020.2.3,Win32,60,,,right,1.40011,0,3,3,9,1,,,,,,,,,,,,,,,,,,,,,,,,
,,,,,,,stim/VC_11.wav,5ec28db2622c500632dc95bc,2021-01-01_19h02.08.931,English_step1,2020.2.3,Win32,60,,,right,1.117235,0,4,4,10,1,,,,,,,,,,,,,,,,,,,,,,,,
,,,,,,,stim/VC_05.wav,5ec28db2622c500632dc95bc,2021-01-01_19h02.08.931,English_step1,2020.2.3,Win32,60,,,left,0.767305,0,5,5,4,1,,,,,,,,,,,,,,,,,,,,,,,,
,,,,,,,stim/VC_01.wav,5ec28db2622c500632dc95bc,2021-01-01_19h02.08.931,English_step1,2020.2.3,Win32,60,,,left,0.752165,0,6,6,0,1,,,,,,,,,,,,,,,,,,,,,,,,
,,,,,,,stim/VC_03.wav,5ec28db2622c500632dc95bc,2021-01-01_19h02.08.931,English_step1,2020.2.3,Win32,60,,,left,0.750755,0,7,7,2,1,,,,,,,,,,,,,,,,,,,,,,,,
,,,,,,,stim/VC_09.wav,5ec28db2622c500632dc95bc,2021-01-01_19h02.08.931,English_step1,2020.2.3,Win32,60,,,right,0.73499,0,8,8,8,1,,,,,,,,,,,,,,,,,,,,,,,,
,,,,,,,stim/VC_07.wav,5ec28db2622c500632dc95bc,2021-01-01_19h02.08.931,English_step1,2020.2.3,Win32,60,,,left,0.572295,0,9,9,6,1,,,,,,,,,,,,,,,,,,,,,,,,
,,,,,,,stim/VC_04.wav,5ec28db2622c500632dc95bc,2021-01-01_19h02.08.931,English_step1,2020.2.3,Win32,60,,,left,0.901975,0,10,10,3,1,,,,,,,,,,,,,,,,,,,,,,,,
,,,,,,,stim/VC_02.wav,5ec28db2622c500632dc95bc,2021-01-01_19h02.08.931,English_step1,2020.2.3,Win32,60,,,left,0.718424999,1,0,11,1,1,,,,,,,,,,,,,,,,,,,,,,,,
,,,,,,,stim/VC_01.wav,5ec28db2622c500632dc95bc,2021-01-01_19h02.08.931,English_step1,2020.2.3,Win32,60,,,left,0.795585,1,1,12,0,1,,,,,,,,,,,,,,,,,,,,,,,,
,,,,,,,stim/VC_10.wav,5ec28db2622c500632dc95bc,2021-01-01_19h02.08.931,English_step1,2020.2.3,Win32,60,,,right,1.052575,1,2,13,9,1,,,,,,,,,,,,,,,,,,,,,,,,
,,,,,,,stim/VC_08.wav,5ec28db2622c500632dc95bc,2021-01-01_19h02.08.931,English_step1,2020.2.3,Win32,60,,,right,0.95072,1,3,14,7,1,,,,,,,,,,,,,,,,,,,,,,,,
,,,,,,,stim/VC_04.wav,5ec28db2622c500632dc95bc,2021-01-01_19h02.08.931,English_step1,2020.2.3,Win32,60,,,left,0.585519999,1,4,15,3,1,,,,,,,,,,,,,,,,,,,,,,,,
,,,,,,,stim/VC_03.wav,5ec28db2622c500632dc95bc,2021-01-01_19h02.08.931,English_step1,2020.2.3,Win32,60,,,left,0.80148,1,5,16,2,1,,,,,,,,,,,,,,,,,,,,,,,,
,,,,,,,stim/VC_06.wav,5ec28db2622c500632dc95bc,2021-01-01_19h02.08.931,English_step1,2020.2.3,Win32,60,,,right,1.336125,1,6,17,5,1,,,,,,,,,,,,,,,,,,,,,,,,
,,,,,,,stim/VC_05.wav,5ec28db2622c500632dc95bc,2021-01-01_19h02.08.931,English_step1,2020.2.3,Win32,60,,,left,1.65148,1,7,18,4,1,,,,,,,,,,,,,,,,,,,,,,,,
,,,,,,,stim/VC_09.wav,5ec28db2622c500632dc95bc,2021-01-01_19h02.08.931,English_step1,2020.2.3,Win32,60,,,right,0.95119,1,8,19,8,1,,,,,,,,,,,,,,,,,,,,,,,,
,,,,,,,stim/VC_11.wav,5ec28db2622c500632dc95bc,2021-01-01_19h02.08.931,English_step1,2020.2.3,Win32,60,,,right,0.91816,1,9,20,10,1,,,,,,,,,,,,,,,,,,,,,,,,
,,,,,,,stim/VC_07.wav,5ec28db2622c500632dc95bc,2021-01-01_19h02.08.931,English_step1,2020.2.3,Win32,60,,,right,0.584325,1,10,21,6,1,,,,,,,,,,,,,,,,,,,,,,,,
,,,,,,,stim/VC_02.wav,5ec28db2622c500632dc95bc,2021-01-01_19h02.08.931,English_step1,2020.2.3,Win32,60,,,left,0.75208,2,0,22,1,1,,,,,,,,,,,,,,,,,,,,,,,,
,,,,,,,stim/VC_05.wav,5ec28db2622c500632dc95bc,2021-01-01_19h02.08.931,English_step1,2020.2.3,Win32,60,,,left,0.734955001,2,1,23,4,1,,,,,,,,,,,,,,,,,,,,,,,,
,,,,,,,stim/VC_03.wav,5ec28db2622c500632dc95bc,2021-01-01_19h02.08.931,English_step1,2020.2.3,Win32,60,,,left,0.551135,2,2,24,2,1,,,,,,,,,,,,,,,,,,,,,,,,
,,,,,,,stim/VC_06.wav,5ec28db2622c500632dc95bc,2021-01-01_19h02.08.931,English_step1,2020.2.3,Win32,60,,,right,0.986219999,2,3,25,5,1,,,,,,,,,,,,,,,,,,,,,,,,
,,,,,,,stim/VC_07.wav,5ec28db2622c500632dc95bc,2021-01-01_19h02.08.931,English_step1,2020.2.3,Win32,60,,,right,1.4508,2,4,26,6,1,,,,,,,,,,,,,,,,,,,,,,,,
,,,,,,,stim/VC_04.wav,5ec28db2622c500632dc95bc,2021-01-01_19h02.08.931,English_step1,2020.2.3,Win32,60,,,left,0.61761,2,5,27,3,1,,,,,,,,,,,,,,,,,,,,,,,,
,,,,,,,stim/VC_08.wav,5ec28db2622c500632dc95bc,2021-01-01_19h02.08.931,English_step1,2020.2.3,Win32,60,,,right,0.716965,2,6,28,7,1,,,,,,,,,,,,,,,,,,,,,,,,
,,,,,,,stim/VC_09.wav,5ec28db2622c500632dc95bc,2021-01-01_19h02.08.931,English_step1,2020.2.3,Win32,60,,,right,0.651765,2,7,29,8,1,,,,,,,,,,,,,,,,,,,,,,,,
,,,,,,,stim/VC_11.wav,5ec28db2622c500632dc95bc,2021-01-01_19h02.08.931,English_step1,2020.2.3,Win32,60,,,right,0.651994999,2,8,30,10,1,,,,,,,,,,,,,,,,,,,,,,,,
,,,,,,,stim/VC_10.wav,5ec28db2622c500632dc95bc,2021-01-01_19h02.08.931,English_step1,2020.2.3,Win32,60,,,right,0.55091,2,9,31,9,1,,,,,,,,,,,,,,,,,,,,,,,,
,,,,,,,stim/VC_01.wav,5ec28db2622c500632dc95bc,2021-01-01_19h02.08.931,English_step1,2020.2.3,Win32,60,,,left,0.684775,2,10,32,0,1,,,,,,,,,,,,,,,,,,,,,,,,
,,,,,,,stim/VC_01.wav,5ec28db2622c500632dc95bc,2021-01-01_19h02.08.931,English_step1,2020.2.3,Win32,60,,,left,1.16792,,,,,,4,0,7.60724,0,0,0,0,1,,,,,,,,,,,,,,,,
,,,,,,,stim/VC_06.wav,5ec28db2622c500632dc95bc,2021-01-01_19h02.08.931,English_step1,2020.2.3,Win32,60,,,right,0.951115,,,,,,,,,0,1,1,5,1,,,,,,,,,,,,,,,,
,,,,,,,stim/VC_11.wav,5ec28db2622c500632dc95bc,2021-01-01_19h02.08.931,English_step1,2020.2.3,Win32,60,,,right,0.736029999,,,,,,,,,0,2,2,10,1,,,,,,,,,,,,,,,,
,,,,,,,stim/VC_07.wav,5ec28db2622c500632dc95bc,2021-01-01_19h02.08.931,English_step1,2020.2.3,Win32,60,,,right,1.833365001,,,,,,,,,0,3,3,6,1,,,,,,,,,,,,,,,,
,,,,,,,stim/VC_09.wav,5ec28db2622c500632dc95bc,2021-01-01_19h02.08.931,English_step1,2020.2.3,Win32,60,,,right,0.734894999,,,,,,,,,0,4,4,8,1,,,,,,,,,,,,,,,,
,,,,,,,stim/VC_05.wav,5ec28db2622c500632dc95bc,2021-01-01_19h02.08.931,English_step1,2020.2.3,Win32,60,,,left,0.667615,,,,,,,,,0,5,5,4,1,,,,,,,,,,,,,,,,
,,,,,,,stim/VC_02.wav,5ec28db2622c500632dc95bc,2021-01-01_19h02.08.931,English_step1,2020.2.3,Win32,60,,,left,0.8507,,,,,,,,,0,6,6,1,1,,,,,,,,,,,,,,,,
,,,,,,,stim/VC_08.wav,5ec28db2622c500632dc95bc,2021-01-01_19h02.08.931,English_step1,2020.2.3,Win32,60,,,right,0.768435,,,,,,,,,0,7,7,7,1,,,,,,,,,,,,,,,,
,,,,,,,stim/VC_03.wav,5ec28db2622c500632dc95bc,2021-01-01_19h02.08.931,English_step1,2020.2.3,Win32,60,,,left,0.537855,,,,,,,,,0,8,8,2,1,,,,,,,,,,,,,,,,
,,,,,,,stim/VC_10.wav,5ec28db2622c500632dc95bc,2021-01-01_19h02.08.931,English_step1,2020.2.3,Win32,60,,,right,0.8678,,,,,,,,,0,9,9,9,1,,,,,,,,,,,,,,,,
,,,,,,,stim/VC_04.wav,5ec28db2622c500632dc95bc,2021-01-01_19h02.08.931,English_step1,2020.2.3,Win32,60,,,left,0.6175,,,,,,,,,0,10,10,3,1,,,,,,,,,,,,,,,,
,,,,,,,stim/VC_02.wav,5ec28db2622c500632dc95bc,2021-01-01_19h02.08.931,English_step1,2020.2.3,Win32,60,,,left,0.685985001,,,,,,,,,1,0,11,1,1,,,,,,,,,,,,,,,,
,,,,,,,stim/VC_09.wav,5ec28db2622c500632dc95bc,2021-01-01_19h02.08.931,English_step1,2020.2.3,Win32,60,,,right,0.91689,,,,,,,,,1,1,12,8,1,,,,,,,,,,,,,,,,
,,,,,,,stim/VC_04.wav,5ec28db2622c500632dc95bc,2021-01-01_19h02.08.931,English_step1,2020.2.3,Win32,60,,,left,0.58644,,,,,,,,,1,2,13,3,1,,,,,,,,,,,,,,,,
,,,,,,,stim/VC_11.wav,5ec28db2622c500632dc95bc,2021-01-01_19h02.08.931,English_step1,2020.2.3,Win32,60,,,right,1.43343,,,,,,,,,1,3,14,10,1,,,,,,,,,,,,,,,,
,,,,,,,stim/VC_05.wav,5ec28db2622c500632dc95bc,2021-01-01_19h02.08.931,English_step1,2020.2.3,Win32,60,,,left,0.801995,,,,,,,,,1,4,15,4,1,,,,,,,,,,,,,,,,
,,,,,,,stim/VC_01.wav,5ec28db2622c500632dc95bc,2021-01-01_19h02.08.931,English_step1,2020.2.3,Win32,60,,,left,0.734235,,,,,,,,,1,5,16,0,1,,,,,,,,,,,,,,,,
,,,,,,,stim/VC_06.wav,5ec28db2622c500632dc95bc,2021-01-01_19h02.08.931,English_step1,2020.2.3,Win32,60,,,left,0.735265,,,,,,,,,1,6,17,5,1,,,,,,,,,,,,,,,,
,,,,,,,stim/VC_03.wav,5ec28db2622c500632dc95bc,2021-01-01_19h02.08.931,English_step1,2020.2.3,Win32,60,,,left,1.017460001,,,,,,,,,1,7,18,2,1,,,,,,,,,,,,,,,,
,,,,,,,stim/VC_07.wav,5ec28db2622c500632dc95bc,2021-01-01_19h02.08.931,English_step1,2020.2.3,Win32,60,,,left,1.333225,,,,,,,,,1,8,19,6,1,,,,,,,,,,,,,,,,
,,,,,,,stim/VC_08.wav,5ec28db2622c500632dc95bc,2021-01-01_19h02.08.931,English_step1,2020.2.3,Win32,60,,,right,0.83383,,,,,,,,,1,9,20,7,1,,,,,,,,,,,,,,,,
,,,,,,,stim/VC_10.wav,5ec28db2622c500632dc95bc,2021-01-01_19h02.08.931,English_step1,2020.2.3,Win32,60,,,right,0.73362,,,,,,,,,1,10,21,9,1,,,,,,,,,,,,,,,,
,,,,,,,stim2/pa+10.wav,5ec28db2622c500632dc95bc,2021-01-01_19h02.08.931,English_step1,2020.2.3,Win32,60,,,,,,,,,,,,,,,,,,right,4.470249999,0,0,0,1,1,,,,,,,,,
,,,,,,,stim2/pa-05.wav,5ec28db2622c500632dc95bc,2021-01-01_19h02.08.931,English_step1,2020.2.3,Win32,60,,,,,,,,,,,,,,,,,,left,0.952105,0,1,1,10,1,,,,,,,,,
,,,,,,,stim2/pa-20.wav,5ec28db2622c500632dc95bc,2021-01-01_19h02.08.931,English_step1,2020.2.3,Win32,60,,,,,,,,,,,,,,,,,,right,1.216965,0,2,2,13,1,,,,,,,,,
,,,,,,,stim2/pa+35.wav,5ec28db2622c500632dc95bc,2021-01-01_19h02.08.931,English_step1,2020.2.3,Win32,60,,,,,,,,,,,,,,,,,,left,0.816675,0,3,3,6,1,,,,,,,,,
,,,,,,,stim2/pa-10.wav,5ec28db2622c500632dc95bc,2021-01-01_19h02.08.931,English_step1,2020.2.3,Win32,60,,,,,,,,,,,,,,,,,,right,0.744565,0,4,4,11,1,,,,,,,,,
,,,,,,,stim2/pa+50.wav,5ec28db2622c500632dc95bc,2021-01-01_19h02.08.931,English_step1,2020.2.3,Win32,60,,,,,,,,,,,,,,,,,,right,0.567360001,0,5,5,9,1,,,,,,,,,
,,,,,,,stim2/pa+05.wav,5ec28db2622c500632dc95bc,2021-01-01_19h02.08.931,English_step1,2020.2.3,Win32,60,,,,,,,,,,,,,,,,,,right,0.68805,0,6,6,0,1,,,,,,,,,
,,,,,,,stim2/pa+40.wav,5ec28db2622c500632dc95bc,2021-01-01_19h02.08.931,English_step1,2020.2.3,Win32,60,,,,,,,,,,,,,,,,,,right,0.68389,0,7,7,7,1,,,,,,,,,
,,,,,,,stim2/pa+45.wav,5ec28db2622c500632dc95bc,2021-01-01_19h02.08.931,English_step1,2020.2.3,Win32,60,,,,,,,,,,,,,,,,,,right,1.499984999,0,8,8,8,1,,,,,,,,,
,,,,,,,stim2/pa+25.wav,5ec28db2622c500632dc95bc,2021-01-01_19h02.08.931,English_step1,2020.2.3,Win32,60,,,,,,,,,,,,,,,,,,right,0.986815,0,9,9,4,1,,,,,,,,,
,,,,,,,stim2/pa+20.wav,5ec28db2622c500632dc95bc,2021-01-01_19h02.08.931,English_step1,2020.2.3,Win32,60,,,,,,,,,,,,,,,,,,right,1.017454999,0,10,10,3,1,,,,,,,,,
,,,,,,,stim2/pa-25.wav,5ec28db2622c500632dc95bc,2021-01-01_19h02.08.931,English_step1,2020.2.3,Win32,60,,,,,,,,,,,,,,,,,,right,1.038035,0,11,11,14,1,,,,,,,,,
,,,,,,,stim2/pa+30.wav,5ec28db2622c500632dc95bc,2021-01-01_19h02.08.931,English_step1,2020.2.3,Win32,60,,,,,,,,,,,,,,,,,,right,1.234515,0,12,12,5,1,,,,,,,,,
,,,,,,,stim2/pa-30.wav,5ec28db2622c500632dc95bc,2021-01-01_19h02.08.931,English_step1,2020.2.3,Win32,60,,,,,,,,,,,,,,,,,,right,1.16568,0,13,13,15,1,,,,,,,,,
,,,,,,,stim2/pa-15.wav,5ec28db2622c500632dc95bc,2021-01-01_19h02.08.931,English_step1,2020.2.3,Win32,60,,,,,,,,,,,,,,,,,,left,0.634904999,0,14,14,12,1,,,,,,,,,
,,,,,,,stim2/pa+15.wav,5ec28db2622c500632dc95bc,2021-01-01_19h02.08.931,English_step1,2020.2.3,Win32,60,,,,,,,,,,,,,,,,,,right,0.681425,0,15,15,2,1,,,,,,,,,
,,,,,,,stim2/pa-35.wav,5ec28db2622c500632dc95bc,2021-01-01_19h02.08.931,English_step1,2020.2.3,Win32,60,,,,,,,,,,,,,,,,,,right,0.861795001,0,16,16,16,1,,,,,,,,,
,,,,,,,stim2/pa+50.wav,5ec28db2622c500632dc95bc,2021-01-01_19h02.08.931,English_step1,2020.2.3,Win32,60,,,,,,,,,,,,,,,,,,left,1.315905,1,0,17,9,1,,,,,,,,,
,,,,,,,stim2/pa+30.wav,5ec28db2622c500632dc95bc,2021-01-01_19h02.08.931,English_step1,2020.2.3,Win32,60,,,,,,,,,,,,,,,,,,right,2.18073,1,1,18,5,1,,,,,,,,,
,,,,,,,stim2/pa+20.wav,5ec28db2622c500632dc95bc,2021-01-01_19h02.08.931,English_step1,2020.2.3,Win32,60,,,,,,,,,,,,,,,,,,right,1.449915,1,2,19,3,1,,,,,,,,,
,,,,,,,stim2/pa+10.wav,5ec28db2622c500632dc95bc,2021-01-01_19h02.08.931,English_step1,2020.2.3,Win32,60,,,,,,,,,,,,,,,,,,left,0.55246,1,3,20,1,1,,,,,,,,,
,,,,,,,stim2/pa-10.wav,5ec28db2622c500632dc95bc,2021-01-01_19h02.08.931,English_step1,2020.2.3,Win32,60,,,,,,,,,,,,,,,,,,right,1.051305001,1,4,21,11,1,,,,,,,,,
,,,,,,,stim2/pa-25.wav,5ec28db2622c500632dc95bc,2021-01-01_19h02.08.931,English_step1,2020.2.3,Win32,60,,,,,,,,,,,,,,,,,,right,0.817985,1,5,22,14,1,,,,,,,,,
,,,,,,,stim2/pa+45.wav,5ec28db2622c500632dc95bc,2021-01-01_19h02.08.931,English_step1,2020.2.3,Win32,60,,,,,,,,,,,,,,,,,,left,0.468135,1,6,23,8,1,,,,,,,,,
,,,,,,,stim2/pa+25.wav,5ec28db2622c500632dc95bc,2021-01-01_19h02.08.931,English_step1,2020.2.3,Win32,60,,,,,,,,,,,,,,,,,,right,0.81848,1,7,24,4,1,,,,,,,,,
,,,,,,,stim2/pa+15.wav,5ec28db2622c500632dc95bc,2021-01-01_19h02.08.931,English_step1,2020.2.3,Win32,60,,,,,,,,,,,,,,,,,,left,0.4349,1,8,25,2,1,,,,,,,,,
,,,,,,,stim2/pa-20.wav,5ec28db2622c500632dc95bc,2021-01-01_19h02.08.931,English_step1,2020.2.3,Win32,60,,,,,,,,,,,,,,,,,,right,0.784985,1,9,26,13,1,,,,,,,,,
,,,,,,,stim2/pa+35.wav,5ec28db2622c500632dc95bc,2021-01-01_19h02.08.931,English_step1,2020.2.3,Win32,60,,,,,,,,,,,,,,,,,,left,0.534975,1,10,27,6,1,,,,,,,,,
,,,,,,,stim2/pa-30.wav,5ec28db2622c500632dc95bc,2021-01-01_19h02.08.931,English_step1,2020.2.3,Win32,60,,,,,,,,,,,,,,,,,,right,0.494455,1,11,28,15,1,,,,,,,,,
,,,,,,,stim2/pa+05.wav,5ec28db2622c500632dc95bc,2021-01-01_19h02.08.931,English_step1,2020.2.3,Win32,60,,,,,,,,,,,,,,,,,,left,0.434210001,1,12,29,0,1,,,,,,,,,
,,,,,,,stim2/pa-15.wav,5ec28db2622c500632dc95bc,2021-01-01_19h02.08.931,English_step1,2020.2.3,Win32,60,,,,,,,,,,,,,,,,,,right,0.47144,1,13,30,12,1,,,,,,,,,
,,,,,,,stim2/pa+40.wav,5ec28db2622c500632dc95bc,2021-01-01_19h02.08.931,English_step1,2020.2.3,Win32,60,,,,,,,,,,,,,,,,,,left,0.418135,1,14,31,7,1,,,,,,,,,
,,,,,,,stim2/pa-05.wav,5ec28db2622c500632dc95bc,2021-01-01_19h02.08.931,English_step1,2020.2.3,Win32,60,,,,,,,,,,,,,,,,,,right,0.52226,1,15,32,10,1,,,,,,,,,
,,,,,,,stim2/pa-35.wav,5ec28db2622c500632dc95bc,2021-01-01_19h02.08.931,English_step1,2020.2.3,Win32,60,,,,,,,,,,,,,,,,,,right,0.734110001,1,16,33,16,1,,,,,,,,,
,,,,,,,stim2/pa-25.wav,5ec28db2622c500632dc95bc,2021-01-01_19h02.08.931,English_step1,2020.2.3,Win32,60,,,,,,,,,,,,,,,,,,right,0.607875,2,0,34,14,1,,,,,,,,,
,,,,,,,stim2/pa-20.wav,5ec28db2622c500632dc95bc,2021-01-01_19h02.08.931,English_step1,2020.2.3,Win32,60,,,,,,,,,,,,,,,,,,right,0.452495,2,1,35,13,1,,,,,,,,,
,,,,,,,stim2/pa-10.wav,5ec28db2622c500632dc95bc,2021-01-01_19h02.08.931,English_step1,2020.2.3,Win32,60,,,,,,,,,,,,,,,,,,right,0.536655,2,2,36,11,1,,,,,,,,,
,,,,,,,stim2/pa-05.wav,5ec28db2622c500632dc95bc,2021-01-01_19h02.08.931,English_step1,2020.2.3,Win32,60,,,,,,,,,,,,,,,,,,right,0.63279,2,3,37,10,1,,,,,,,,,
,,,,,,,stim2/pa+15.wav,5ec28db2622c500632dc95bc,2021-01-01_19h02.08.931,English_step1,2020.2.3,Win32,60,,,,,,,,,,,,,,,,,,right,0.47019,2,4,38,2,1,,,,,,,,,
,,,,,,,stim2/pa+05.wav,5ec28db2622c500632dc95bc,2021-01-01_19h02.08.931,English_step1,2020.2.3,Win32,60,,,,,,,,,,,,,,,,,,right,0.43469,2,5,39,0,1,,,,,,,,,
,,,,,,,stim2/pa+25.wav,5ec28db2622c500632dc95bc,2021-01-01_19h02.08.931,English_step1,2020.2.3,Win32,60,,,,,,,,,,,,,,,,,,right,0.41683,2,6,40,4,1,,,,,,,,,
,,,,,,,stim2/pa+35.wav,5ec28db2622c500632dc95bc,2021-01-01_19h02.08.931,English_step1,2020.2.3,Win32,60,,,,,,,,,,,,,,,,,,left,1.316575,2,7,41,6,1,,,,,,,,,
,,,,,,,stim2/pa+40.wav,5ec28db2622c500632dc95bc,2021-01-01_19h02.08.931,English_step1,2020.2.3,Win32,60,,,,,,,,,,,,,,,,,,right,0.922795,2,8,42,7,1,,,,,,,,,
,,,,,,,stim2/pa+45.wav,5ec28db2622c500632dc95bc,2021-01-01_19h02.08.931,English_step1,2020.2.3,Win32,60,,,,,,,,,,,,,,,,,,right,0.70455,2,9,43,8,1,,,,,,,,,
,,,,,,,stim2/pa+50.wav,5ec28db2622c500632dc95bc,2021-01-01_19h02.08.931,English_step1,2020.2.3,Win32,60,,,,,,,,,,,,,,,,,,right,0.94939,2,10,44,9,1,,,,,,,,,
,,,,,,,stim2/pa-30.wav,5ec28db2622c500632dc95bc,2021-01-01_19h02.08.931,English_step1,2020.2.3,Win32,60,,,,,,,,,,,,,,,,,,right,0.758565,2,11,45,15,1,,,,,,,,,
,,,,,,,stim2/pa-15.wav,5ec28db2622c500632dc95bc,2021-01-01_19h02.08.931,English_step1,2020.2.3,Win32,60,,,,,,,,,,,,,,,,,,right,0.504249999,2,12,46,12,1,,,,,,,,,
,,,,,,,stim2/pa-35.wav,5ec28db2622c500632dc95bc,2021-01-01_19h02.08.931,English_step1,2020.2.3,Win32,60,,,,,,,,,,,,,,,,,,right,0.554590001,2,13,47,16,1,,,,,,,,,
,,,,,,,stim2/pa+20.wav,5ec28db2622c500632dc95bc,2021-01-01_19h02.08.931,English_step1,2020.2.3,Win32,60,,,,,,,,,,,,,,,,,,right,0.467415,2,14,48,3,1,,,,,,,,,
,,,,,,,stim2/pa+30.wav,5ec28db2622c500632dc95bc,2021-01-01_19h02.08.931,English_step1,2020.2.3,Win32,60,,,,,,,,,,,,,,,,,,left,0.86765,2,15,49,5,1,,,,,,,,,
,,,,,,,stim2/pa+10.wav,5ec28db2622c500632dc95bc,2021-01-01_19h02.08.931,English_step1,2020.2.3,Win32,60,,,,,,,,,,,,,,,,,,right,1.35028,2,16,50,1,1,,,,,,,,,
,,,,,,,stim2/pa+15.wav,5ec28db2622c500632dc95bc,2021-01-01_19h02.08.931,English_step1,2020.2.3,Win32,60,,,,,,,,,,,,,,,,,,right,1.62566,,,,,,q,3.987615,0,0,0,2,1,,
,,,,,,,stim2/pa+40.wav,5ec28db2622c500632dc95bc,2021-01-01_19h02.08.931,English_step1,2020.2.3,Win32,60,,,,,,,,,,,,,,,,,,right,3.151319999,,,,,,,,0,1,1,7,1,,
,,,,,,,stim2/pa-10.wav,5ec28db2622c500632dc95bc,2021-01-01_19h02.08.931,English_step1,2020.2.3,Win32,60,,,,,,,,,,,,,,,,,,right,1.07943,,,,,,,,0,2,2,11,1,,
,,,,,,,stim2/pa-30.wav,5ec28db2622c500632dc95bc,2021-01-01_19h02.08.931,English_step1,2020.2.3,Win32,60,,,,,,,,,,,,,,,,,,right,1.212575001,,,,,,,,0,3,3,15,1,,
,,,,,,,stim2/pa+35.wav,5ec28db2622c500632dc95bc,2021-01-01_19h02.08.931,English_step1,2020.2.3,Win32,60,,,,,,,,,,,,,,,,,,right,1.151120001,,,,,,,,0,4,4,6,1,,
,,,,,,,stim2/pa+05.wav,5ec28db2622c500632dc95bc,2021-01-01_19h02.08.931,English_step1,2020.2.3,Win32,60,,,,,,,,,,,,,,,,,,left,0.619109999,,,,,,,,0,5,5,0,1,,
,,,,,,,stim2/pa-35.wav,5ec28db2622c500632dc95bc,2021-01-01_19h02.08.931,English_step1,2020.2.3,Win32,60,,,,,,,,,,,,,,,,,,right,0.735165,,,,,,,,0,6,6,16,1,,
,,,,,,,stim2/pa-20.wav,5ec28db2622c500632dc95bc,2021-01-01_19h02.08.931,English_step1,2020.2.3,Win32,60,,,,,,,,,,,,,,,,,,right,0.6424,,,,,,,,0,7,7,13,1,,
,,,,,,,stim2/pa+20.wav,5ec28db2622c500632dc95bc,2021-01-01_19h02.08.931,English_step1,2020.2.3,Win32,60,,,,,,,,,,,,,,,,,,left,0.92987,,,,,,,,0,8,8,3,1,,
,,,,,,,stim2/pa-15.wav,5ec28db2622c500632dc95bc,2021-01-01_19h02.08.931,English_step1,2020.2.3,Win32,60,,,,,,,,,,,,,,,,,,right,0.736535,,,,,,,,0,9,9,12,1,,
,,,,,,,stim2/pa+45.wav,5ec28db2622c500632dc95bc,2021-01-01_19h02.08.931,English_step1,2020.2.3,Win32,60,,,,,,,,,,,,,,,,,,right,1.21666,,,,,,,,0,10,10,8,1,,
,,,,,,,stim2/pa+10.wav,5ec28db2622c500632dc95bc,2021-01-01_19h02.08.931,English_step1,2020.2.3,Win32,60,,,,,,,,,,,,,,,,,,left,0.518414999,,,,,,,,0,11,11,1,1,,
,,,,,,,stim2/pa-05.wav,5ec28db2622c500632dc95bc,2021-01-01_19h02.08.931,English_step1,2020.2.3,Win32,60,,,,,,,,,,,,,,,,,,right,0.834240001,,,,,,,,0,12,12,10,1,,
,,,,,,,stim2/pa-25.wav,5ec28db2622c500632dc95bc,2021-01-01_19h02.08.931,English_step1,2020.2.3,Win32,60,,,,,,,,,,,,,,,,,,right,0.659395,,,,,,,,0,13,13,14,1,,
,,,,,,,stim2/pa+50.wav,5ec28db2622c500632dc95bc,2021-01-01_19h02.08.931,English_step1,2020.2.3,Win32,60,,,,,,,,,,,,,,,,,,left,0.976100001,,,,,,,,0,14,14,9,1,,
,,,,,,,stim2/pa+25.wav,5ec28db2622c500632dc95bc,2021-01-01_19h02.08.931,English_step1,2020.2.3,Win32,60,,,,,,,,,,,,,,,,,,left,0.870455,,,,,,,,0,15,15,4,1,,
,,,,,,,stim2/pa+30.wav,5ec28db2622c500632dc95bc,2021-01-01_19h02.08.931,English_step1,2020.2.3,Win32,60,,,,,,,,,,,,,,,,,,right,0.84924,,,,,,,,0,16,16,5,1,,
,,,,,,,stim2/pa-15.wav,5ec28db2622c500632dc95bc,2021-01-01_19h02.08.931,English_step1,2020.2.3,Win32,60,,,,,,,,,,,,,,,,,,right,0.777255001,,,,,,,,1,0,17,12,1,,
,,,,,,,stim2/pa+10.wav,5ec28db2622c500632dc95bc,2021-01-01_19h02.08.931,English_step1,2020.2.3,Win32,60,,,,,,,,,,,,,,,,,,left,0.605685,,,,,,,,1,1,18,1,1,,
,,,,,,,stim2/pa+50.wav,5ec28db2622c500632dc95bc,2021-01-01_19h02.08.931,English_step1,2020.2.3,Win32,60,,,,,,,,,,,,,,,,,,right,0.701555,,,,,,,,1,2,19,9,1,,
,,,,,,,stim2/pa-25.wav,5ec28db2622c500632dc95bc,2021-01-01_19h02.08.931,English_step1,2020.2.3,Win32,60,,,,,,,,,,,,,,,,,,right,0.954185,,,,,,,,1,3,20,14,1,,
,,,,,,,stim2/pa-30.wav,5ec28db2622c500632dc95bc,2021-01-01_19h02.08.931,English_step1,2020.2.3,Win32,60,,,,,,,,,,,,,,,,,,right,0.495929999,,,,,,,,1,4,21,15,1,,
,,,,,,,stim2/pa+15.wav,5ec28db2622c500632dc95bc,2021-01-01_19h02.08.931,English_step1,2020.2.3,Win32,60,,,,,,,,,,,,,,,,,,left,0.50063,,,,,,,,1,5,22,2,1,,
,,,,,,,stim2/pa-35.wav,5ec28db2622c500632dc95bc,2021-01-01_19h02.08.931,English_step1,2020.2.3,Win32,60,,,,,,,,,,,,,,,,,,right,0.679695,,,,,,,,1,6,23,16,1,,
,,,,,,,stim2/pa+45.wav,5ec28db2622c500632dc95bc,2021-01-01_19h02.08.931,English_step1,2020.2.3,Win32,60,,,,,,,,,,,,,,,,,,left,0.570440001,,,,,,,,1,7,24,8,1,,
,,,,,,,stim2/pa+30.wav,5ec28db2622c500632dc95bc,2021-01-01_19h02.08.931,English_step1,2020.2.3,Win32,60,,,,,,,,,,,,,,,,,,left,1.104155,,,,,,,,1,8,25,5,1,,
,,,,,,,stim2/pa+40.wav,5ec28db2622c500632dc95bc,2021-01-01_19h02.08.931,English_step1,2020.2.3,Win32,60,,,,,,,,,,,,,,,,,,right,0.64432,,,,,,,,1,9,26,7,1,,
,,,,,,,stim2/pa+25.wav,5ec28db2622c500632dc95bc,2021-01-01_19h02.08.931,English_step1,2020.2.3,Win32,60,,,,,,,,,,,,,,,,,,left,0.628885,,,,,,,,1,10,27,4,1,,
,,,,,,,stim2/pa+20.wav,5ec28db2622c500632dc95bc,2021-01-01_19h02.08.931,English_step1,2020.2.3,Win32,60,,,,,,,,,,,,,,,,,,right,0.89656,,,,,,,,1,11,28,3,1,,
,,,,,,,stim2/pa+05.wav,5ec28db2622c500632dc95bc,2021-01-01_19h02.08.931,English_step1,2020.2.3,Win32,60,,,,,,,,,,,,,,,,,,right,0.9012,,,,,,,,1,12,29,0,1,,
,,,,,,,stim2/pa-05.wav,5ec28db2622c500632dc95bc,2021-01-01_19h02.08.931,English_step1,2020.2.3,Win32,60,,,,,,,,,,,,,,,,,,left,0.493805001,,,,,,,,1,13,30,10,1,,
,,,,,,,stim2/pa-20.wav,5ec28db2622c500632dc95bc,2021-01-01_19h02.08.931,English_step1,2020.2.3,Win32,60,,,,,,,,,,,,,,,,,,right,0.75316,,,,,,,,1,14,31,13,1,,
,,,,,,,stim2/pa-10.wav,5ec28db2622c500632dc95bc,2021-01-01_19h02.08.931,English_step1,2020.2.3,Win32,60,,,,,,,,,,,,,,,,,,right,0.984485,,,,,,,,1,15,32,11,1,,
,,,,,,,stim2/pa+35.wav,5ec28db2622c500632dc95bc,2021-01-01_19h02.08.931,English_step1,2020.2.3,Win32,60,,,,,,,,,,,,,,,,,,right,0.535209999,,,,,,,,1,16,33,6,1,,
,,,,,,,,5ec28db2622c500632dc95bc,2021-01-01_19h02.08.931,English_step1,2020.2.3,Win32,60,,,,,,,,,,,,,,,,,,,,,,,,,,,,,,,,space,24.763415
