resp.keys,resp.rt,trials.thisRepN,trials.thisTrialN,trials.thisN,trials.thisIndex,trials.ran,stimuli,participant,date,expName,psychopyVersion,OS,frameRate,gotResponse.keys,gotResponse.rt,resp_2.keys,resp_2.rt,trials_2.thisRepN,trials_2.thisTrialN,trials_2.thisN,trials_2.thisIndex,trials_2.ran,key_resp_3.keys,key_resp_3.rt,trials_4.thisRepN,trials_4.thisTrialN,trials_4.thisN,trials_4.thisIndex,trials_4.ran,resp_3.keys,resp_3.rt,trials_3.thisRepN,trials_3.thisTrialN,trials_3.thisN,trials_3.thisIndex,trials_3.ran,key_resp_2.keys,key_resp_2.rt,trials_5.thisRepN,trials_5.thisTrialN,trials_5.thisN,trials_5.thisIndex,trials_5.ran,key_resp.keys,key_resp.rt
left,5.150985,0,0,0,0,1,stim/VC_01.wav,5ec28db2622c500632dc95bc,2021-01-05_14h27.41.989,Spanish_step2,2020.2.3,Win32,60,,,,,,,,,,,,,,,,,,,,,,,,,,,,,,,,
right,0.867755,0,1,1,1,1,stim/VC_11.wav,5ec28db2622c500632dc95bc,2021-01-05_14h27.41.989,Spanish_step2,2020.2.3,Win32,60,,,,,,,,,,,,,,,,,,,,,,,,,,,,,,,,
,,,,,,,stim/VC_01.wav,5ec28db2622c500632dc95bc,2021-01-05_14h27.41.989,Spanish_step2,2020.2.3,Win32,60,space,3.483265,left,0.751835,0,0,0,0,1,,,,,,,,,,,,,,,,,,,,,,,
,,,,,,,stim/VC_10.wav,5ec28db2622c500632dc95bc,2021-01-05_14h27.41.989,Spanish_step2,2020.2.3,Win32,60,,,right,0.679545,0,1,1,9,1,,,,,,,,,,,,,,,,,,,,,,,
,,,,,,,stim/VC_05.wav,5ec28db2622c500632dc95bc,2021-01-05_14h27.41.989,Spanish_step2,2020.2.3,Win32,60,,,left,0.81918,0,2,2,4,1,,,,,,,,,,,,,,,,,,,,,,,
,,,,,,,stim/VC_11.wav,5ec28db2622c500632dc95bc,2021-01-05_14h27.41.989,Spanish_step2,2020.2.3,Win32,60,,,right,0.55095,0,3,3,10,1,,,,,,,,,,,,,,,,,,,,,,,
,,,,,,,stim/VC_08.wav,5ec28db2622c500632dc95bc,2021-01-05_14h27.41.989,Spanish_step2,2020.2.3,Win32,60,,,right,0.700945,0,4,4,7,1,,,,,,,,,,,,,,,,,,,,,,,
,,,,,,,stim/VC_09.wav,5ec28db2622c500632dc95bc,2021-01-05_14h27.41.989,Spanish_step2,2020.2.3,Win32,60,,,right,0.434845,0,5,5,8,1,,,,,,,,,,,,,,,,,,,,,,,
,,,,,,,stim/VC_07.wav,5ec28db2622c500632dc95bc,2021-01-05_14h27.41.989,Spanish_step2,2020.2.3,Win32,60,,,right,1.18673,0,6,6,6,1,,,,,,,,,,,,,,,,,,,,,,,
,,,,,,,stim/VC_04.wav,5ec28db2622c500632dc95bc,2021-01-05_14h27.41.989,Spanish_step2,2020.2.3,Win32,60,,,left,0.6022,0,7,7,3,1,,,,,,,,,,,,,,,,,,,,,,,
,,,,,,,stim/VC_06.wav,5ec28db2622c500632dc95bc,2021-01-05_14h27.41.989,Spanish_step2,2020.2.3,Win32,60,,,left,0.867285,0,8,8,5,1,,,,,,,,,,,,,,,,,,,,,,,
,,,,,,,stim/VC_03.wav,5ec28db2622c500632dc95bc,2021-01-05_14h27.41.989,Spanish_step2,2020.2.3,Win32,60,,,left,0.61961,0,9,9,2,1,,,,,,,,,,,,,,,,,,,,,,,
,,,,,,,stim/VC_02.wav,5ec28db2622c500632dc95bc,2021-01-05_14h27.41.989,Spanish_step2,2020.2.3,Win32,60,,,left,0.51816,0,10,10,1,1,,,,,,,,,,,,,,,,,,,,,,,
,,,,,,,stim/VC_02.wav,5ec28db2622c500632dc95bc,2021-01-05_14h27.41.989,Spanish_step2,2020.2.3,Win32,60,,,left,0.40142,1,0,11,1,1,,,,,,,,,,,,,,,,,,,,,,,
,,,,,,,stim/VC_09.wav,5ec28db2622c500632dc95bc,2021-01-05_14h27.41.989,Spanish_step2,2020.2.3,Win32,60,,,right,0.602175,1,1,12,8,1,,,,,,,,,,,,,,,,,,,,,,,
,,,,,,,stim/VC_10.wav,5ec28db2622c500632dc95bc,2021-01-05_14h27.41.989,Spanish_step2,2020.2.3,Win32,60,,,left,0.518905,1,2,13,9,1,,,,,,,,,,,,,,,,,,,,,,,
,,,,,,,stim/VC_06.wav,5ec28db2622c500632dc95bc,2021-01-05_14h27.41.989,Spanish_step2,2020.2.3,Win32,60,,,left,0.88414,1,3,14,5,1,,,,,,,,,,,,,,,,,,,,,,,
,,,,,,,stim/VC_04.wav,5ec28db2622c500632dc95bc,2021-01-05_14h27.41.989,Spanish_step2,2020.2.3,Win32,60,,,left,0.91748,1,4,15,3,1,,,,,,,,,,,,,,,,,,,,,,,
,,,,,,,stim/VC_07.wav,5ec28db2622c500632dc95bc,2021-01-05_14h27.41.989,Spanish_step2,2020.2.3,Win32,60,,,right,0.70194,1,5,16,6,1,,,,,,,,,,,,,,,,,,,,,,,
,,,,,,,stim/VC_05.wav,5ec28db2622c500632dc95bc,2021-01-05_14h27.41.989,Spanish_step2,2020.2.3,Win32,60,,,left,0.488585,1,6,17,4,1,,,,,,,,,,,,,,,,,,,,,,,
,,,,,,,stim/VC_01.wav,5ec28db2622c500632dc95bc,2021-01-05_14h27.41.989,Spanish_step2,2020.2.3,Win32,60,,,left,0.75116,1,7,18,0,1,,,,,,,,,,,,,,,,,,,,,,,
,,,,,,,stim/VC_03.wav,5ec28db2622c500632dc95bc,2021-01-05_14h27.41.989,Spanish_step2,2020.2.3,Win32,60,,,left,0.584765,1,8,19,2,1,,,,,,,,,,,,,,,,,,,,,,,
,,,,,,,stim/VC_08.wav,5ec28db2622c500632dc95bc,2021-01-05_14h27.41.989,Spanish_step2,2020.2.3,Win32,60,,,right,0.90516,1,9,20,7,1,,,,,,,,,,,,,,,,,,,,,,,
,,,,,,,stim/VC_11.wav,5ec28db2622c500632dc95bc,2021-01-05_14h27.41.989,Spanish_step2,2020.2.3,Win32,60,,,right,0.86861,1,10,21,10,1,,,,,,,,,,,,,,,,,,,,,,,
,,,,,,,stim/VC_02.wav,5ec28db2622c500632dc95bc,2021-01-05_14h27.41.989,Spanish_step2,2020.2.3,Win32,60,,,left,0.601655,2,0,22,1,1,,,,,,,,,,,,,,,,,,,,,,,
,,,,,,,stim/VC_06.wav,5ec28db2622c500632dc95bc,2021-01-05_14h27.41.989,Spanish_step2,2020.2.3,Win32,60,,,left,0.70145,2,1,23,5,1,,,,,,,,,,,,,,,,,,,,,,,
,,,,,,,stim/VC_09.wav,5ec28db2622c500632dc95bc,2021-01-05_14h27.41.989,Spanish_step2,2020.2.3,Win32,60,,,right,0.618,2,2,24,8,1,,,,,,,,,,,,,,,,,,,,,,,
,,,,,,,stim/VC_10.wav,5ec28db2622c500632dc95bc,2021-01-05_14h27.41.989,Spanish_step2,2020.2.3,Win32,60,,,right,0.684765,2,3,25,9,1,,,,,,,,,,,,,,,,,,,,,,,
,,,,,,,stim/VC_04.wav,5ec28db2622c500632dc95bc,2021-01-05_14h27.41.989,Spanish_step2,2020.2.3,Win32,60,,,left,0.75234,2,4,26,3,1,,,,,,,,,,,,,,,,,,,,,,,
,,,,,,,stim/VC_01.wav,5ec28db2622c500632dc95bc,2021-01-05_14h27.41.989,Spanish_step2,2020.2.3,Win32,60,,,left,0.869545,2,5,27,0,1,,,,,,,,,,,,,,,,,,,,,,,
,,,,,,,stim/VC_03.wav,5ec28db2622c500632dc95bc,2021-01-05_14h27.41.989,Spanish_step2,2020.2.3,Win32,60,,,left,0.617015,2,6,28,2,1,,,,,,,,,,,,,,,,,,,,,,,
,,,,,,,stim/VC_07.wav,5ec28db2622c500632dc95bc,2021-01-05_14h27.41.989,Spanish_step2,2020.2.3,Win32,60,,,right,0.73464,2,7,29,6,1,,,,,,,,,,,,,,,,,,,,,,,
,,,,,,,stim/VC_05.wav,5ec28db2622c500632dc95bc,2021-01-05_14h27.41.989,Spanish_step2,2020.2.3,Win32,60,,,left,0.58621,2,8,30,4,1,,,,,,,,,,,,,,,,,,,,,,,
,,,,,,,stim/VC_08.wav,5ec28db2622c500632dc95bc,2021-01-05_14h27.41.989,Spanish_step2,2020.2.3,Win32,60,,,right,0.667895,2,9,31,7,1,,,,,,,,,,,,,,,,,,,,,,,
,,,,,,,stim/VC_11.wav,5ec28db2622c500632dc95bc,2021-01-05_14h27.41.989,Spanish_step2,2020.2.3,Win32,60,,,right,0.834075,2,10,32,10,1,,,,,,,,,,,,,,,,,,,,,,,
,,,,,,,stim/VC_11.wav,5ec28db2622c500632dc95bc,2021-01-05_14h27.41.989,Spanish_step2,2020.2.3,Win32,60,,,right,0.98358,,,,,,7,6.758805,0,0,0,10,1,,,,,,,,,,,,,,,,
,,,,,,,stim/VC_03.wav,5ec28db2622c500632dc95bc,2021-01-05_14h27.41.989,Spanish_step2,2020.2.3,Win32,60,,,left,0.985325,,,,,,,,0,1,1,2,1,,,,,,,,,,,,,,,,
,,,,,,,stim/VC_04.wav,5ec28db2622c500632dc95bc,2021-01-05_14h27.41.989,Spanish_step2,2020.2.3,Win32,60,,,left,1.9168,,,,,,,,0,2,2,3,1,,,,,,,,,,,,,,,,
,,,,,,,stim/VC_06.wav,5ec28db2622c500632dc95bc,2021-01-05_14h27.41.989,Spanish_step2,2020.2.3,Win32,60,,,left,2.133745,,,,,,,,0,3,3,5,1,,,,,,,,,,,,,,,,
,,,,,,,stim/VC_09.wav,5ec28db2622c500632dc95bc,2021-01-05_14h27.41.989,Spanish_step2,2020.2.3,Win32,60,,,right,0.68388,,,,,,,,0,4,4,8,1,,,,,,,,,,,,,,,,
,,,,,,,stim/VC_05.wav,5ec28db2622c500632dc95bc,2021-01-05_14h27.41.989,Spanish_step2,2020.2.3,Win32,60,,,right,1.586665,,,,,,,,0,5,5,4,1,,,,,,,,,,,,,,,,
,,,,,,,stim/VC_08.wav,5ec28db2622c500632dc95bc,2021-01-05_14h27.41.989,Spanish_step2,2020.2.3,Win32,60,,,right,0.952675,,,,,,,,0,6,6,7,1,,,,,,,,,,,,,,,,
,,,,,,,stim/VC_02.wav,5ec28db2622c500632dc95bc,2021-01-05_14h27.41.989,Spanish_step2,2020.2.3,Win32,60,,,left,1.0013,,,,,,,,0,7,7,1,1,,,,,,,,,,,,,,,,
,,,,,,,stim/VC_07.wav,5ec28db2622c500632dc95bc,2021-01-05_14h27.41.989,Spanish_step2,2020.2.3,Win32,60,,,right,2.683065,,,,,,,,0,8,8,6,1,,,,,,,,,,,,,,,,
,,,,,,,stim/VC_10.wav,5ec28db2622c500632dc95bc,2021-01-05_14h27.41.989,Spanish_step2,2020.2.3,Win32,60,,,right,1.001035,,,,,,,,0,9,9,9,1,,,,,,,,,,,,,,,,
,,,,,,,stim/VC_01.wav,5ec28db2622c500632dc95bc,2021-01-05_14h27.41.989,Spanish_step2,2020.2.3,Win32,60,,,left,0.97128,,,,,,,,0,10,10,0,1,,,,,,,,,,,,,,,,
,,,,,,,stim/VC_10.wav,5ec28db2622c500632dc95bc,2021-01-05_14h27.41.989,Spanish_step2,2020.2.3,Win32,60,,,right,0.616845,,,,,,,,1,0,11,9,1,,,,,,,,,,,,,,,,
,,,,,,,stim/VC_05.wav,5ec28db2622c500632dc95bc,2021-01-05_14h27.41.989,Spanish_step2,2020.2.3,Win32,60,,,left,0.867005,,,,,,,,1,1,12,4,1,,,,,,,,,,,,,,,,
,,,,,,,stim/VC_08.wav,5ec28db2622c500632dc95bc,2021-01-05_14h27.41.989,Spanish_step2,2020.2.3,Win32,60,,,right,0.450845,,,,,,,,1,2,13,7,1,,,,,,,,,,,,,,,,
,,,,,,,stim/VC_06.wav,5ec28db2622c500632dc95bc,2021-01-05_14h27.41.989,Spanish_step2,2020.2.3,Win32,60,,,right,1.16711,,,,,,,,1,3,14,5,1,,,,,,,,,,,,,,,,
,,,,,,,stim/VC_09.wav,5ec28db2622c500632dc95bc,2021-01-05_14h27.41.989,Spanish_step2,2020.2.3,Win32,60,,,right,0.510845,,,,,,,,1,4,15,8,1,,,,,,,,,,,,,,,,
,,,,,,,stim/VC_02.wav,5ec28db2622c500632dc95bc,2021-01-05_14h27.41.989,Spanish_step2,2020.2.3,Win32,60,,,right,0.43458,,,,,,,,1,5,16,1,1,,,,,,,,,,,,,,,,
,,,,,,,stim/VC_03.wav,5ec28db2622c500632dc95bc,2021-01-05_14h27.41.989,Spanish_step2,2020.2.3,Win32,60,,,left,0.76873,,,,,,,,1,6,17,2,1,,,,,,,,,,,,,,,,
,,,,,,,stim/VC_01.wav,5ec28db2622c500632dc95bc,2021-01-05_14h27.41.989,Spanish_step2,2020.2.3,Win32,60,,,left,0.436945,,,,,,,,1,7,18,0,1,,,,,,,,,,,,,,,,
,,,,,,,stim/VC_07.wav,5ec28db2622c500632dc95bc,2021-01-05_14h27.41.989,Spanish_step2,2020.2.3,Win32,60,,,right,0.74993,,,,,,,,1,8,19,6,1,,,,,,,,,,,,,,,,
,,,,,,,stim/VC_11.wav,5ec28db2622c500632dc95bc,2021-01-05_14h27.41.989,Spanish_step2,2020.2.3,Win32,60,,,right,0.89885,,,,,,,,1,9,20,10,1,,,,,,,,,,,,,,,,
,,,,,,,stim/VC_04.wav,5ec28db2622c500632dc95bc,2021-01-05_14h27.41.989,Spanish_step2,2020.2.3,Win32,60,,,left,0.46754,,,,,,,,1,10,21,3,1,,,,,,,,,,,,,,,,
,,,,,,,stim2/pa-05.wav,5ec28db2622c500632dc95bc,2021-01-05_14h27.41.989,Spanish_step2,2020.2.3,Win32,60,,,,,,,,,,,,,,,,,left,1.70873,0,0,0,10,1,,,,,,,,,
,,,,,,,stim2/pa-25.wav,5ec28db2622c500632dc95bc,2021-01-05_14h27.41.989,Spanish_step2,2020.2.3,Win32,60,,,,,,,,,,,,,,,,,right,0.83965,0,1,1,14,1,,,,,,,,,
,,,,,,,stim2/pa+15.wav,5ec28db2622c500632dc95bc,2021-01-05_14h27.41.989,Spanish_step2,2020.2.3,Win32,60,,,,,,,,,,,,,,,,,right,0.68748,0,2,2,2,1,,,,,,,,,
,,,,,,,stim2/pa+25.wav,5ec28db2622c500632dc95bc,2021-01-05_14h27.41.989,Spanish_step2,2020.2.3,Win32,60,,,,,,,,,,,,,,,,,left,0.917005,0,3,3,4,1,,,,,,,,,
,,,,,,,stim2/pa+20.wav,5ec28db2622c500632dc95bc,2021-01-05_14h27.41.989,Spanish_step2,2020.2.3,Win32,60,,,,,,,,,,,,,,,,,right,1.467685,0,4,4,3,1,,,,,,,,,
,,,,,,,stim2/pa+40.wav,5ec28db2622c500632dc95bc,2021-01-05_14h27.41.989,Spanish_step2,2020.2.3,Win32,60,,,,,,,,,,,,,,,,,left,0.70256,0,5,5,7,1,,,,,,,,,
,,,,,,,stim2/pa-20.wav,5ec28db2622c500632dc95bc,2021-01-05_14h27.41.989,Spanish_step2,2020.2.3,Win32,60,,,,,,,,,,,,,,,,,right,0.71876,0,6,6,13,1,,,,,,,,,
,,,,,,,stim2/pa-30.wav,5ec28db2622c500632dc95bc,2021-01-05_14h27.41.989,Spanish_step2,2020.2.3,Win32,60,,,,,,,,,,,,,,,,,right,0.6852,0,7,7,15,1,,,,,,,,,
,,,,,,,stim2/pa+45.wav,5ec28db2622c500632dc95bc,2021-01-05_14h27.41.989,Spanish_step2,2020.2.3,Win32,60,,,,,,,,,,,,,,,,,left,0.552225,0,8,8,8,1,,,,,,,,,
,,,,,,,stim2/pa-35.wav,5ec28db2622c500632dc95bc,2021-01-05_14h27.41.989,Spanish_step2,2020.2.3,Win32,60,,,,,,,,,,,,,,,,,right,0.604545,0,9,9,16,1,,,,,,,,,
,,,,,,,stim2/pa+30.wav,5ec28db2622c500632dc95bc,2021-01-05_14h27.41.989,Spanish_step2,2020.2.3,Win32,60,,,,,,,,,,,,,,,,,left,0.61848,0,10,10,5,1,,,,,,,,,
,,,,,,,stim2/pa-10.wav,5ec28db2622c500632dc95bc,2021-01-05_14h27.41.989,Spanish_step2,2020.2.3,Win32,60,,,,,,,,,,,,,,,,,right,0.818355,0,11,11,11,1,,,,,,,,,
,,,,,,,stim2/pa-15.wav,5ec28db2622c500632dc95bc,2021-01-05_14h27.41.989,Spanish_step2,2020.2.3,Win32,60,,,,,,,,,,,,,,,,,left,0.51893,0,12,12,12,1,,,,,,,,,
,,,,,,,stim2/pa+10.wav,5ec28db2622c500632dc95bc,2021-01-05_14h27.41.989,Spanish_step2,2020.2.3,Win32,60,,,,,,,,,,,,,,,,,left,0.53505,0,13,13,1,1,,,,,,,,,
,,,,,,,stim2/pa+35.wav,5ec28db2622c500632dc95bc,2021-01-05_14h27.41.989,Spanish_step2,2020.2.3,Win32,60,,,,,,,,,,,,,,,,,left,0.4516,0,14,14,6,1,,,,,,,,,
,,,,,,,stim2/pa+50.wav,5ec28db2622c500632dc95bc,2021-01-05_14h27.41.989,Spanish_step2,2020.2.3,Win32,60,,,,,,,,,,,,,,,,,right,0.80232,0,15,15,9,1,,,,,,,,,
,,,,,,,stim2/pa+05.wav,5ec28db2622c500632dc95bc,2021-01-05_14h27.41.989,Spanish_step2,2020.2.3,Win32,60,,,,,,,,,,,,,,,,,right,1.03489,0,16,16,0,1,,,,,,,,,
,,,,,,,stim2/pa+50.wav,5ec28db2622c500632dc95bc,2021-01-05_14h27.41.989,Spanish_step2,2020.2.3,Win32,60,,,,,,,,,,,,,,,,,left,0.486105,1,0,17,9,1,,,,,,,,,
,,,,,,,stim2/pa-20.wav,5ec28db2622c500632dc95bc,2021-01-05_14h27.41.989,Spanish_step2,2020.2.3,Win32,60,,,,,,,,,,,,,,,,,right,0.70293,1,1,18,13,1,,,,,,,,,
,,,,,,,stim2/pa-35.wav,5ec28db2622c500632dc95bc,2021-01-05_14h27.41.989,Spanish_step2,2020.2.3,Win32,60,,,,,,,,,,,,,,,,,right,0.64082,1,2,19,16,1,,,,,,,,,
,,,,,,,stim2/pa-15.wav,5ec28db2622c500632dc95bc,2021-01-05_14h27.41.989,Spanish_step2,2020.2.3,Win32,60,,,,,,,,,,,,,,,,,left,0.785695,1,3,20,12,1,,,,,,,,,
,,,,,,,stim2/pa+35.wav,5ec28db2622c500632dc95bc,2021-01-05_14h27.41.989,Spanish_step2,2020.2.3,Win32,60,,,,,,,,,,,,,,,,,right,0.536665,1,4,21,6,1,,,,,,,,,
,,,,,,,stim2/pa+10.wav,5ec28db2622c500632dc95bc,2021-01-05_14h27.41.989,Spanish_step2,2020.2.3,Win32,60,,,,,,,,,,,,,,,,,left,0.753025,1,5,22,1,1,,,,,,,,,
,,,,,,,stim2/pa+05.wav,5ec28db2622c500632dc95bc,2021-01-05_14h27.41.989,Spanish_step2,2020.2.3,Win32,60,,,,,,,,,,,,,,,,,right,0.50155,1,6,23,0,1,,,,,,,,,
,,,,,,,stim2/pa+30.wav,5ec28db2622c500632dc95bc,2021-01-05_14h27.41.989,Spanish_step2,2020.2.3,Win32,60,,,,,,,,,,,,,,,,,right,0.502375,1,7,24,5,1,,,,,,,,,
,,,,,,,stim2/pa+45.wav,5ec28db2622c500632dc95bc,2021-01-05_14h27.41.989,Spanish_step2,2020.2.3,Win32,60,,,,,,,,,,,,,,,,,left,0.51847,1,8,25,8,1,,,,,,,,,
,,,,,,,stim2/pa+20.wav,5ec28db2622c500632dc95bc,2021-01-05_14h27.41.989,Spanish_step2,2020.2.3,Win32,60,,,,,,,,,,,,,,,,,right,0.619445,1,9,26,3,1,,,,,,,,,
,,,,,,,stim2/pa+25.wav,5ec28db2622c500632dc95bc,2021-01-05_14h27.41.989,Spanish_step2,2020.2.3,Win32,60,,,,,,,,,,,,,,,,,left,0.55215,1,10,27,4,1,,,,,,,,,
,,,,,,,stim2/pa-25.wav,5ec28db2622c500632dc95bc,2021-01-05_14h27.41.989,Spanish_step2,2020.2.3,Win32,60,,,,,,,,,,,,,,,,,right,0.701685,1,11,28,14,1,,,,,,,,,
,,,,,,,stim2/pa+15.wav,5ec28db2622c500632dc95bc,2021-01-05_14h27.41.989,Spanish_step2,2020.2.3,Win32,60,,,,,,,,,,,,,,,,,left,0.45253,1,12,29,2,1,,,,,,,,,
,,,,,,,stim2/pa-05.wav,5ec28db2622c500632dc95bc,2021-01-05_14h27.41.989,Spanish_step2,2020.2.3,Win32,60,,,,,,,,,,,,,,,,,left,0.618275,1,13,30,10,1,,,,,,,,,
,,,,,,,stim2/pa+40.wav,5ec28db2622c500632dc95bc,2021-01-05_14h27.41.989,Spanish_step2,2020.2.3,Win32,60,,,,,,,,,,,,,,,,,left,0.56975,1,14,31,7,1,,,,,,,,,
,,,,,,,stim2/pa-10.wav,5ec28db2622c500632dc95bc,2021-01-05_14h27.41.989,Spanish_step2,2020.2.3,Win32,60,,,,,,,,,,,,,,,,,right,0.71811,1,15,32,11,1,,,,,,,,,
,,,,,,,stim2/pa-30.wav,5ec28db2622c500632dc95bc,2021-01-05_14h27.41.989,Spanish_step2,2020.2.3,Win32,60,,,,,,,,,,,,,,,,,right,1.635795,1,16,33,15,1,,,,,,,,,
,,,,,,,stim2/pa-30.wav,5ec28db2622c500632dc95bc,2021-01-05_14h27.41.989,Spanish_step2,2020.2.3,Win32,60,,,,,,,,,,,,,,,,,right,0.5854,2,0,34,15,1,,,,,,,,,
,,,,,,,stim2/pa-05.wav,5ec28db2622c500632dc95bc,2021-01-05_14h27.41.989,Spanish_step2,2020.2.3,Win32,60,,,,,,,,,,,,,,,,,left,0.41859,2,1,35,10,1,,,,,,,,,
,,,,,,,stim2/pa-10.wav,5ec28db2622c500632dc95bc,2021-01-05_14h27.41.989,Spanish_step2,2020.2.3,Win32,60,,,,,,,,,,,,,,,,,right,0.60313,2,2,36,11,1,,,,,,,,,
,,,,,,,stim2/pa+40.wav,5ec28db2622c500632dc95bc,2021-01-05_14h27.41.989,Spanish_step2,2020.2.3,Win32,60,,,,,,,,,,,,,,,,,left,0.417885,2,3,37,7,1,,,,,,,,,
,,,,,,,stim2/pa+45.wav,5ec28db2622c500632dc95bc,2021-01-05_14h27.41.989,Spanish_step2,2020.2.3,Win32,60,,,,,,,,,,,,,,,,,right,0.51757,2,4,38,8,1,,,,,,,,,
,,,,,,,stim2/pa+35.wav,5ec28db2622c500632dc95bc,2021-01-05_14h27.41.989,Spanish_step2,2020.2.3,Win32,60,,,,,,,,,,,,,,,,,left,0.402265,2,5,39,6,1,,,,,,,,,
,,,,,,,stim2/pa+30.wav,5ec28db2622c500632dc95bc,2021-01-05_14h27.41.989,Spanish_step2,2020.2.3,Win32,60,,,,,,,,,,,,,,,,,right,0.601705,2,6,40,5,1,,,,,,,,,
,,,,,,,stim2/pa-20.wav,5ec28db2622c500632dc95bc,2021-01-05_14h27.41.989,Spanish_step2,2020.2.3,Win32,60,,,,,,,,,,,,,,,,,right,0.785755,2,7,41,13,1,,,,,,,,,
,,,,,,,stim2/pa+20.wav,5ec28db2622c500632dc95bc,2021-01-05_14h27.41.989,Spanish_step2,2020.2.3,Win32,60,,,,,,,,,,,,,,,,,right,0.653035,2,8,42,3,1,,,,,,,,,
,,,,,,,stim2/pa-15.wav,5ec28db2622c500632dc95bc,2021-01-05_14h27.41.989,Spanish_step2,2020.2.3,Win32,60,,,,,,,,,,,,,,,,,left,0.42136,2,9,43,12,1,,,,,,,,,
,,,,,,,stim2/pa+05.wav,5ec28db2622c500632dc95bc,2021-01-05_14h27.41.989,Spanish_step2,2020.2.3,Win32,60,,,,,,,,,,,,,,,,,right,0.71825,2,10,44,0,1,,,,,,,,,
,,,,,,,stim2/pa-25.wav,5ec28db2622c500632dc95bc,2021-01-05_14h27.41.989,Spanish_step2,2020.2.3,Win32,60,,,,,,,,,,,,,,,,,right,0.819975,2,11,45,14,1,,,,,,,,,
,,,,,,,stim2/pa+25.wav,5ec28db2622c500632dc95bc,2021-01-05_14h27.41.989,Spanish_step2,2020.2.3,Win32,60,,,,,,,,,,,,,,,,,right,0.53537,2,12,46,4,1,,,,,,,,,
,,,,,,,stim2/pa-35.wav,5ec28db2622c500632dc95bc,2021-01-05_14h27.41.989,Spanish_step2,2020.2.3,Win32,60,,,,,,,,,,,,,,,,,right,0.552075,2,13,47,16,1,,,,,,,,,
,,,,,,,stim2/pa+50.wav,5ec28db2622c500632dc95bc,2021-01-05_14h27.41.989,Spanish_step2,2020.2.3,Win32,60,,,,,,,,,,,,,,,,,right,0.769125,2,14,48,9,1,,,,,,,,,
,,,,,,,stim2/pa+10.wav,5ec28db2622c500632dc95bc,2021-01-05_14h27.41.989,Spanish_step2,2020.2.3,Win32,60,,,,,,,,,,,,,,,,,left,1.034315,2,15,49,1,1,,,,,,,,,
,,,,,,,stim2/pa+15.wav,5ec28db2622c500632dc95bc,2021-01-05_14h27.41.989,Spanish_step2,2020.2.3,Win32,60,,,,,,,,,,,,,,,,,left,0.952005,2,16,50,2,1,,,,,,,,,
,,,,,,,stim2/pa-05.wav,5ec28db2622c500632dc95bc,2021-01-05_14h27.41.989,Spanish_step2,2020.2.3,Win32,60,,,,,,,,,,,,,,,,,right,0.934995,,,,,,z,2.502145,0,0,0,10,1,,
,,,,,,,stim2/pa+25.wav,5ec28db2622c500632dc95bc,2021-01-05_14h27.41.989,Spanish_step2,2020.2.3,Win32,60,,,,,,,,,,,,,,,,,left,0.63522,,,,,,,,0,1,1,4,1,,
,,,,,,,stim2/pa+35.wav,5ec28db2622c500632dc95bc,2021-01-05_14h27.41.989,Spanish_step2,2020.2.3,Win32,60,,,,,,,,,,,,,,,,,right,0.60222,,,,,,,,0,2,2,6,1,,
,,,,,,,stim2/pa+45.wav,5ec28db2622c500632dc95bc,2021-01-05_14h27.41.989,Spanish_step2,2020.2.3,Win32,60,,,,,,,,,,,,,,,,,left,0.46877,,,,,,,,0,3,3,8,1,,
,,,,,,,stim2/pa+05.wav,5ec28db2622c500632dc95bc,2021-01-05_14h27.41.989,Spanish_step2,2020.2.3,Win32,60,,,,,,,,,,,,,,,,,right,0.441865,,,,,,,,0,4,4,0,1,,
,,,,,,,stim2/pa+50.wav,5ec28db2622c500632dc95bc,2021-01-05_14h27.41.989,Spanish_step2,2020.2.3,Win32,60,,,,,,,,,,,,,,,,,left,0.570355,,,,,,,,0,5,5,9,1,,
,,,,,,,stim2/pa-25.wav,5ec28db2622c500632dc95bc,2021-01-05_14h27.41.989,Spanish_step2,2020.2.3,Win32,60,,,,,,,,,,,,,,,,,right,0.6122,,,,,,,,0,6,6,14,1,,
,,,,,,,stim2/pa+40.wav,5ec28db2622c500632dc95bc,2021-01-05_14h27.41.989,Spanish_step2,2020.2.3,Win32,60,,,,,,,,,,,,,,,,,left,0.617555,,,,,,,,0,7,7,7,1,,
,,,,,,,stim2/pa+15.wav,5ec28db2622c500632dc95bc,2021-01-05_14h27.41.989,Spanish_step2,2020.2.3,Win32,60,,,,,,,,,,,,,,,,,left,0.781515,,,,,,,,0,8,8,2,1,,
,,,,,,,stim2/pa-15.wav,5ec28db2622c500632dc95bc,2021-01-05_14h27.41.989,Spanish_step2,2020.2.3,Win32,60,,,,,,,,,,,,,,,,,right,0.554105,,,,,,,,0,9,9,12,1,,
,,,,,,,stim2/pa-10.wav,5ec28db2622c500632dc95bc,2021-01-05_14h27.41.989,Spanish_step2,2020.2.3,Win32,60,,,,,,,,,,,,,,,,,right,0.883675,,,,,,,,0,10,10,11,1,,
,,,,,,,stim2/pa+30.wav,5ec28db2622c500632dc95bc,2021-01-05_14h27.41.989,Spanish_step2,2020.2.3,Win32,60,,,,,,,,,,,,,,,,,left,0.60227,,,,,,,,0,11,11,5,1,,
,,,,,,,stim2/pa+10.wav,5ec28db2622c500632dc95bc,2021-01-05_14h27.41.989,Spanish_step2,2020.2.3,Win32,60,,,,,,,,,,,,,,,,,right,0.48654,,,,,,,,0,12,12,1,1,,
,,,,,,,stim2/pa+20.wav,5ec28db2622c500632dc95bc,2021-01-05_14h27.41.989,Spanish_step2,2020.2.3,Win32,60,,,,,,,,,,,,,,,,,left,0.38537,,,,,,,,0,13,13,3,1,,
,,,,,,,stim2/pa-20.wav,5ec28db2622c500632dc95bc,2021-01-05_14h27.41.989,Spanish_step2,2020.2.3,Win32,60,,,,,,,,,,,,,,,,,right,0.63492,,,,,,,,0,14,14,13,1,,
,,,,,,,stim2/pa-35.wav,5ec28db2622c500632dc95bc,2021-01-05_14h27.41.989,Spanish_step2,2020.2.3,Win32,60,,,,,,,,,,,,,,,,,right,0.719395,,,,,,,,0,15,15,16,1,,
,,,,,,,stim2/pa-30.wav,5ec28db2622c500632dc95bc,2021-01-05_14h27.41.989,Spanish_step2,2020.2.3,Win32,60,,,,,,,,,,,,,,,,,right,0.76933,,,,,,,,0,16,16,15,1,,
,,,,,,,stim2/pa+50.wav,5ec28db2622c500632dc95bc,2021-01-05_14h27.41.989,Spanish_step2,2020.2.3,Win32,60,,,,,,,,,,,,,,,,,left,0.519295,,,,,,,,1,0,17,9,1,,
,,,,,,,stim2/pa-15.wav,5ec28db2622c500632dc95bc,2021-01-05_14h27.41.989,Spanish_step2,2020.2.3,Win32,60,,,,,,,,,,,,,,,,,right,0.634655,,,,,,,,1,1,18,12,1,,
,,,,,,,stim2/pa+30.wav,5ec28db2622c500632dc95bc,2021-01-05_14h27.41.989,Spanish_step2,2020.2.3,Win32,60,,,,,,,,,,,,,,,,,left,0.83543,,,,,,,,1,2,19,5,1,,
,,,,,,,stim2/pa-20.wav,5ec28db2622c500632dc95bc,2021-01-05_14h27.41.989,Spanish_step2,2020.2.3,Win32,60,,,,,,,,,,,,,,,,,right,0.519325,,,,,,,,1,3,20,13,1,,
,,,,,,,stim2/pa+45.wav,5ec28db2622c500632dc95bc,2021-01-05_14h27.41.989,Spanish_step2,2020.2.3,Win32,60,,,,,,,,,,,,,,,,,left,0.58657,,,,,,,,1,4,21,8,1,,
,,,,,,,stim2/pa+20.wav,5ec28db2622c500632dc95bc,2021-01-05_14h27.41.989,Spanish_step2,2020.2.3,Win32,60,,,,,,,,,,,,,,,,,right,0.435755,,,,,,,,1,5,22,3,1,,
,,,,,,,stim2/pa-05.wav,5ec28db2622c500632dc95bc,2021-01-05_14h27.41.989,Spanish_step2,2020.2.3,Win32,60,,,,,,,,,,,,,,,,,right,1.18461,,,,,,,,1,6,23,10,1,,
,,,,,,,stim2/pa-35.wav,5ec28db2622c500632dc95bc,2021-01-05_14h27.41.989,Spanish_step2,2020.2.3,Win32,60,,,,,,,,,,,,,,,,,right,1.0189,,,,,,,,1,7,24,16,1,,
,,,,,,,stim2/pa+10.wav,5ec28db2622c500632dc95bc,2021-01-05_14h27.41.989,Spanish_step2,2020.2.3,Win32,60,,,,,,,,,,,,,,,,,left,0.75181,,,,,,,,1,8,25,1,1,,
,,,,,,,stim2/pa-10.wav,5ec28db2622c500632dc95bc,2021-01-05_14h27.41.989,Spanish_step2,2020.2.3,Win32,60,,,,,,,,,,,,,,,,,right,0.61834,,,,,,,,1,9,26,11,1,,
,,,,,,,stim2/pa+15.wav,5ec28db2622c500632dc95bc,2021-01-05_14h27.41.989,Spanish_step2,2020.2.3,Win32,60,,,,,,,,,,,,,,,,,left,0.701515,,,,,,,,1,10,27,2,1,,
,,,,,,,stim2/pa-30.wav,5ec28db2622c500632dc95bc,2021-01-05_14h27.41.989,Spanish_step2,2020.2.3,Win32,60,,,,,,,,,,,,,,,,,right,0.48551,,,,,,,,1,11,28,15,1,,
,,,,,,,stim2/pa-25.wav,5ec28db2622c500632dc95bc,2021-01-05_14h27.41.989,Spanish_step2,2020.2.3,Win32,60,,,,,,,,,,,,,,,,,right,0.71835,,,,,,,,1,12,29,14,1,,
,,,,,,,stim2/pa+05.wav,5ec28db2622c500632dc95bc,2021-01-05_14h27.41.989,Spanish_step2,2020.2.3,Win32,60,,,,,,,,,,,,,,,,,right,0.45182,,,,,,,,1,13,30,0,1,,
,,,,,,,stim2/pa+35.wav,5ec28db2622c500632dc95bc,2021-01-05_14h27.41.989,Spanish_step2,2020.2.3,Win32,60,,,,,,,,,,,,,,,,,left,1,,,,,,,,1,14,31,6,1,,
,,,,,,,stim2/pa+40.wav,5ec28db2622c500632dc95bc,2021-01-05_14h27.41.989,Spanish_step2,2020.2.3,Win32,60,,,,,,,,,,,,,,,,,right,0.95279,,,,,,,,1,15,32,7,1,,
,,,,,,,stim2/pa+25.wav,5ec28db2622c500632dc95bc,2021-01-05_14h27.41.989,Spanish_step2,2020.2.3,Win32,60,,,,,,,,,,,,,,,,,left,0.72241,,,,,,,,1,16,33,4,1,,
,,,,,,,,5ec28db2622c500632dc95bc,2021-01-05_14h27.41.989,Spanish_step2,2020.2.3,Win32,60,,,,,,,,,,,,,,,,,,,,,,,,,,,,,,,space,8.76431
