resp.keys,resp.rt,trials.thisRepN,trials.thisTrialN,trials.thisN,trials.thisIndex,trials.ran,stimuli,participant,date,expName,psychopyVersion,OS,frameRate,gotResponse.keys,gotResponse.rt,resp_2.keys,resp_2.rt,trials_2.thisRepN,trials_2.thisTrialN,trials_2.thisN,trials_2.thisIndex,trials_2.ran,key_resp_3.keys,key_resp_3.rt,trials_4.thisRepN,trials_4.thisTrialN,trials_4.thisN,trials_4.thisIndex,trials_4.ran,resp_3.keys,resp_3.rt,trials_3.thisRepN,trials_3.thisTrialN,trials_3.thisN,trials_3.thisIndex,trials_3.ran,key_resp_2.keys,key_resp_2.rt,trials_5.thisRepN,trials_5.thisTrialN,trials_5.thisN,trials_5.thisIndex,trials_5.ran,key_resp.keys,key_resp.rt
left,2.67997,0,0,0,0,1,stim/VC_01.wav,5f4056738318181904984b01,2021-02-24_23h57.58.049,Hungarian_step4,2020.2.3,MacIntel,60,,,,,,,,,,,,,,,,,,,,,,,,,,,,,,,,
right,0.800735,0,1,1,1,1,stim/VC_11.wav,5f4056738318181904984b01,2021-02-24_23h57.58.049,Hungarian_step4,2020.2.3,MacIntel,60,,,,,,,,,,,,,,,,,,,,,,,,,,,,,,,,
,,,,,,,stim/VC_02.wav,5f4056738318181904984b01,2021-02-24_23h57.58.049,Hungarian_step4,2020.2.3,MacIntel,60,space,2.224705,left,0.913035,0,0,0,1,1,,,,,,,,,,,,,,,,,,,,,,,
,,,,,,,stim/VC_03.wav,5f4056738318181904984b01,2021-02-24_23h57.58.049,Hungarian_step4,2020.2.3,MacIntel,60,,,left,0.734665,0,1,1,2,1,,,,,,,,,,,,,,,,,,,,,,,
,,,,,,,stim/VC_06.wav,5f4056738318181904984b01,2021-02-24_23h57.58.049,Hungarian_step4,2020.2.3,MacIntel,60,,,right,0.55014,0,2,2,5,1,,,,,,,,,,,,,,,,,,,,,,,
,,,,,,,stim/VC_08.wav,5f4056738318181904984b01,2021-02-24_23h57.58.049,Hungarian_step4,2020.2.3,MacIntel,60,,,right,0.57588,0,3,3,7,1,,,,,,,,,,,,,,,,,,,,,,,
,,,,,,,stim/VC_05.wav,5f4056738318181904984b01,2021-02-24_23h57.58.049,Hungarian_step4,2020.2.3,MacIntel,60,,,right,0.618845,0,4,4,4,1,,,,,,,,,,,,,,,,,,,,,,,
,,,,,,,stim/VC_11.wav,5f4056738318181904984b01,2021-02-24_23h57.58.049,Hungarian_step4,2020.2.3,MacIntel,60,,,right,0.71706,0,5,5,10,1,,,,,,,,,,,,,,,,,,,,,,,
,,,,,,,stim/VC_09.wav,5f4056738318181904984b01,2021-02-24_23h57.58.049,Hungarian_step4,2020.2.3,MacIntel,60,,,right,0.66968,0,6,6,8,1,,,,,,,,,,,,,,,,,,,,,,,
,,,,,,,stim/VC_04.wav,5f4056738318181904984b01,2021-02-24_23h57.58.049,Hungarian_step4,2020.2.3,MacIntel,60,,,right,0.771475,0,7,7,3,1,,,,,,,,,,,,,,,,,,,,,,,
,,,,,,,stim/VC_01.wav,5f4056738318181904984b01,2021-02-24_23h57.58.049,Hungarian_step4,2020.2.3,MacIntel,60,,,left,0.555815,0,8,8,0,1,,,,,,,,,,,,,,,,,,,,,,,
,,,,,,,stim/VC_10.wav,5f4056738318181904984b01,2021-02-24_23h57.58.049,Hungarian_step4,2020.2.3,MacIntel,60,,,right,0.53759,0,9,9,9,1,,,,,,,,,,,,,,,,,,,,,,,
,,,,,,,stim/VC_07.wav,5f4056738318181904984b01,2021-02-24_23h57.58.049,Hungarian_step4,2020.2.3,MacIntel,60,,,right,0.65512,0,10,10,6,1,,,,,,,,,,,,,,,,,,,,,,,
,,,,,,,stim/VC_03.wav,5f4056738318181904984b01,2021-02-24_23h57.58.049,Hungarian_step4,2020.2.3,MacIntel,60,,,right,1.58481,1,0,11,2,1,,,,,,,,,,,,,,,,,,,,,,,
,,,,,,,stim/VC_01.wav,5f4056738318181904984b01,2021-02-24_23h57.58.049,Hungarian_step4,2020.2.3,MacIntel,60,,,left,0.515165,1,1,12,0,1,,,,,,,,,,,,,,,,,,,,,,,
,,,,,,,stim/VC_05.wav,5f4056738318181904984b01,2021-02-24_23h57.58.049,Hungarian_step4,2020.2.3,MacIntel,60,,,right,0.637085,1,2,13,4,1,,,,,,,,,,,,,,,,,,,,,,,
,,,,,,,stim/VC_06.wav,5f4056738318181904984b01,2021-02-24_23h57.58.049,Hungarian_step4,2020.2.3,MacIntel,60,,,right,0.56743,1,3,14,5,1,,,,,,,,,,,,,,,,,,,,,,,
,,,,,,,stim/VC_07.wav,5f4056738318181904984b01,2021-02-24_23h57.58.049,Hungarian_step4,2020.2.3,MacIntel,60,,,right,0.738115,1,4,15,6,1,,,,,,,,,,,,,,,,,,,,,,,
,,,,,,,stim/VC_04.wav,5f4056738318181904984b01,2021-02-24_23h57.58.049,Hungarian_step4,2020.2.3,MacIntel,60,,,right,0.589755,1,5,16,3,1,,,,,,,,,,,,,,,,,,,,,,,
,,,,,,,stim/VC_10.wav,5f4056738318181904984b01,2021-02-24_23h57.58.049,Hungarian_step4,2020.2.3,MacIntel,60,,,right,0.70059,1,6,17,9,1,,,,,,,,,,,,,,,,,,,,,,,
,,,,,,,stim/VC_02.wav,5f4056738318181904984b01,2021-02-24_23h57.58.049,Hungarian_step4,2020.2.3,MacIntel,60,,,left,0.78592,1,7,18,1,1,,,,,,,,,,,,,,,,,,,,,,,
,,,,,,,stim/VC_08.wav,5f4056738318181904984b01,2021-02-24_23h57.58.049,Hungarian_step4,2020.2.3,MacIntel,60,,,right,0.60543,1,8,19,7,1,,,,,,,,,,,,,,,,,,,,,,,
,,,,,,,stim/VC_11.wav,5f4056738318181904984b01,2021-02-24_23h57.58.049,Hungarian_step4,2020.2.3,MacIntel,60,,,right,0.751465,1,9,20,10,1,,,,,,,,,,,,,,,,,,,,,,,
,,,,,,,stim/VC_09.wav,5f4056738318181904984b01,2021-02-24_23h57.58.049,Hungarian_step4,2020.2.3,MacIntel,60,,,right,0.653985,1,10,21,8,1,,,,,,,,,,,,,,,,,,,,,,,
,,,,,,,stim/VC_08.wav,5f4056738318181904984b01,2021-02-24_23h57.58.049,Hungarian_step4,2020.2.3,MacIntel,60,,,right,0.54076,2,0,22,7,1,,,,,,,,,,,,,,,,,,,,,,,
,,,,,,,stim/VC_04.wav,5f4056738318181904984b01,2021-02-24_23h57.58.049,Hungarian_step4,2020.2.3,MacIntel,60,,,right,0.767005,2,1,23,3,1,,,,,,,,,,,,,,,,,,,,,,,
,,,,,,,stim/VC_09.wav,5f4056738318181904984b01,2021-02-24_23h57.58.049,Hungarian_step4,2020.2.3,MacIntel,60,,,right,0.803445,2,2,24,8,1,,,,,,,,,,,,,,,,,,,,,,,
,,,,,,,stim/VC_05.wav,5f4056738318181904984b01,2021-02-24_23h57.58.049,Hungarian_step4,2020.2.3,MacIntel,60,,,right,1.030525,2,3,25,4,1,,,,,,,,,,,,,,,,,,,,,,,
,,,,,,,stim/VC_11.wav,5f4056738318181904984b01,2021-02-24_23h57.58.049,Hungarian_step4,2020.2.3,MacIntel,60,,,right,0.80488,2,4,26,10,1,,,,,,,,,,,,,,,,,,,,,,,
,,,,,,,stim/VC_03.wav,5f4056738318181904984b01,2021-02-24_23h57.58.049,Hungarian_step4,2020.2.3,MacIntel,60,,,left,0.83383,2,5,27,2,1,,,,,,,,,,,,,,,,,,,,,,,
,,,,,,,stim/VC_01.wav,5f4056738318181904984b01,2021-02-24_23h57.58.049,Hungarian_step4,2020.2.3,MacIntel,60,,,right,0.591555,2,6,28,0,1,,,,,,,,,,,,,,,,,,,,,,,
,,,,,,,stim/VC_10.wav,5f4056738318181904984b01,2021-02-24_23h57.58.049,Hungarian_step4,2020.2.3,MacIntel,60,,,right,0.87118,2,7,29,9,1,,,,,,,,,,,,,,,,,,,,,,,
,,,,,,,stim/VC_02.wav,5f4056738318181904984b01,2021-02-24_23h57.58.049,Hungarian_step4,2020.2.3,MacIntel,60,,,left,0.70518,2,8,30,1,1,,,,,,,,,,,,,,,,,,,,,,,
,,,,,,,stim/VC_06.wav,5f4056738318181904984b01,2021-02-24_23h57.58.049,Hungarian_step4,2020.2.3,MacIntel,60,,,right,0.57165,2,9,31,5,1,,,,,,,,,,,,,,,,,,,,,,,
,,,,,,,stim/VC_07.wav,5f4056738318181904984b01,2021-02-24_23h57.58.049,Hungarian_step4,2020.2.3,MacIntel,60,,,right,0.63259,2,10,32,6,1,,,,,,,,,,,,,,,,,,,,,,,
,,,,,,,stim/VC_05.wav,5f4056738318181904984b01,2021-02-24_23h57.58.049,Hungarian_step4,2020.2.3,MacIntel,60,,,right,0.817295,,,,,,3,3.018215,0,0,0,4,1,,,,,,,,,,,,,,,,
,,,,,,,stim/VC_02.wav,5f4056738318181904984b01,2021-02-24_23h57.58.049,Hungarian_step4,2020.2.3,MacIntel,60,,,left,0.605105,,,,,,,,0,1,1,1,1,,,,,,,,,,,,,,,,
,,,,,,,stim/VC_01.wav,5f4056738318181904984b01,2021-02-24_23h57.58.049,Hungarian_step4,2020.2.3,MacIntel,60,,,left,0.58371,,,,,,,,0,2,2,0,1,,,,,,,,,,,,,,,,
,,,,,,,stim/VC_04.wav,5f4056738318181904984b01,2021-02-24_23h57.58.049,Hungarian_step4,2020.2.3,MacIntel,60,,,right,0.58986,,,,,,,,0,3,3,3,1,,,,,,,,,,,,,,,,
,,,,,,,stim/VC_09.wav,5f4056738318181904984b01,2021-02-24_23h57.58.049,Hungarian_step4,2020.2.3,MacIntel,60,,,right,0.793865,,,,,,,,0,4,4,8,1,,,,,,,,,,,,,,,,
,,,,,,,stim/VC_07.wav,5f4056738318181904984b01,2021-02-24_23h57.58.049,Hungarian_step4,2020.2.3,MacIntel,60,,,right,0.763635,,,,,,,,0,5,5,6,1,,,,,,,,,,,,,,,,
,,,,,,,stim/VC_11.wav,5f4056738318181904984b01,2021-02-24_23h57.58.049,Hungarian_step4,2020.2.3,MacIntel,60,,,right,0.66476,,,,,,,,0,6,6,10,1,,,,,,,,,,,,,,,,
,,,,,,,stim/VC_03.wav,5f4056738318181904984b01,2021-02-24_23h57.58.049,Hungarian_step4,2020.2.3,MacIntel,60,,,right,0.670405,,,,,,,,0,7,7,2,1,,,,,,,,,,,,,,,,
,,,,,,,stim/VC_08.wav,5f4056738318181904984b01,2021-02-24_23h57.58.049,Hungarian_step4,2020.2.3,MacIntel,60,,,right,0.51494,,,,,,,,0,8,8,7,1,,,,,,,,,,,,,,,,
,,,,,,,stim/VC_10.wav,5f4056738318181904984b01,2021-02-24_23h57.58.049,Hungarian_step4,2020.2.3,MacIntel,60,,,right,0.58987,,,,,,,,0,9,9,9,1,,,,,,,,,,,,,,,,
,,,,,,,stim/VC_06.wav,5f4056738318181904984b01,2021-02-24_23h57.58.049,Hungarian_step4,2020.2.3,MacIntel,60,,,right,0.68657,,,,,,,,0,10,10,5,1,,,,,,,,,,,,,,,,
,,,,,,,stim/VC_11.wav,5f4056738318181904984b01,2021-02-24_23h57.58.049,Hungarian_step4,2020.2.3,MacIntel,60,,,right,0.757685,,,,,,,,1,0,11,10,1,,,,,,,,,,,,,,,,
,,,,,,,stim/VC_09.wav,5f4056738318181904984b01,2021-02-24_23h57.58.049,Hungarian_step4,2020.2.3,MacIntel,60,,,right,0.774845,,,,,,,,1,1,12,8,1,,,,,,,,,,,,,,,,
,,,,,,,stim/VC_03.wav,5f4056738318181904984b01,2021-02-24_23h57.58.049,Hungarian_step4,2020.2.3,MacIntel,60,,,left,0.838255,,,,,,,,1,2,13,2,1,,,,,,,,,,,,,,,,
,,,,,,,stim/VC_01.wav,5f4056738318181904984b01,2021-02-24_23h57.58.049,Hungarian_step4,2020.2.3,MacIntel,60,,,left,0.633925,,,,,,,,1,3,14,0,1,,,,,,,,,,,,,,,,
,,,,,,,stim/VC_02.wav,5f4056738318181904984b01,2021-02-24_23h57.58.049,Hungarian_step4,2020.2.3,MacIntel,60,,,left,0.601555,,,,,,,,1,4,15,1,1,,,,,,,,,,,,,,,,
,,,,,,,stim/VC_10.wav,5f4056738318181904984b01,2021-02-24_23h57.58.049,Hungarian_step4,2020.2.3,MacIntel,60,,,right,0.50352,,,,,,,,1,5,16,9,1,,,,,,,,,,,,,,,,
,,,,,,,stim/VC_04.wav,5f4056738318181904984b01,2021-02-24_23h57.58.049,Hungarian_step4,2020.2.3,MacIntel,60,,,right,0.90128,,,,,,,,1,6,17,3,1,,,,,,,,,,,,,,,,
,,,,,,,stim/VC_05.wav,5f4056738318181904984b01,2021-02-24_23h57.58.049,Hungarian_step4,2020.2.3,MacIntel,60,,,right,0.516445,,,,,,,,1,7,18,4,1,,,,,,,,,,,,,,,,
,,,,,,,stim/VC_06.wav,5f4056738318181904984b01,2021-02-24_23h57.58.049,Hungarian_step4,2020.2.3,MacIntel,60,,,right,0.48253,,,,,,,,1,8,19,5,1,,,,,,,,,,,,,,,,
,,,,,,,stim/VC_08.wav,5f4056738318181904984b01,2021-02-24_23h57.58.049,Hungarian_step4,2020.2.3,MacIntel,60,,,right,0.69577,,,,,,,,1,9,20,7,1,,,,,,,,,,,,,,,,
,,,,,,,stim/VC_07.wav,5f4056738318181904984b01,2021-02-24_23h57.58.049,Hungarian_step4,2020.2.3,MacIntel,60,,,right,0.66717,,,,,,,,1,10,21,6,1,,,,,,,,,,,,,,,,
,,,,,,,stim2/pa+50.wav,5f4056738318181904984b01,2021-02-24_23h57.58.049,Hungarian_step4,2020.2.3,MacIntel,60,,,,,,,,,,,,,,,,,left,1.213675,0,0,0,9,1,,,,,,,,,
,,,,,,,stim2/pa+25.wav,5f4056738318181904984b01,2021-02-24_23h57.58.049,Hungarian_step4,2020.2.3,MacIntel,60,,,,,,,,,,,,,,,,,left,0.51692,0,1,1,4,1,,,,,,,,,
,,,,,,,stim2/pa+40.wav,5f4056738318181904984b01,2021-02-24_23h57.58.049,Hungarian_step4,2020.2.3,MacIntel,60,,,,,,,,,,,,,,,,,left,0.632335,0,2,2,7,1,,,,,,,,,
,,,,,,,stim2/pa-25.wav,5f4056738318181904984b01,2021-02-24_23h57.58.049,Hungarian_step4,2020.2.3,MacIntel,60,,,,,,,,,,,,,,,,,right,0.58431,0,3,3,14,1,,,,,,,,,
,,,,,,,stim2/pa+05.wav,5f4056738318181904984b01,2021-02-24_23h57.58.049,Hungarian_step4,2020.2.3,MacIntel,60,,,,,,,,,,,,,,,,,left,0.69608,0,4,4,0,1,,,,,,,,,
,,,,,,,stim2/pa-35.wav,5f4056738318181904984b01,2021-02-24_23h57.58.049,Hungarian_step4,2020.2.3,MacIntel,60,,,,,,,,,,,,,,,,,right,0.49851,0,5,5,16,1,,,,,,,,,
,,,,,,,stim2/pa+35.wav,5f4056738318181904984b01,2021-02-24_23h57.58.049,Hungarian_step4,2020.2.3,MacIntel,60,,,,,,,,,,,,,,,,,left,1.25052,0,6,6,6,1,,,,,,,,,
,,,,,,,stim2/pa+10.wav,5f4056738318181904984b01,2021-02-24_23h57.58.049,Hungarian_step4,2020.2.3,MacIntel,60,,,,,,,,,,,,,,,,,right,0.823845,0,7,7,1,1,,,,,,,,,
,,,,,,,stim2/pa-05.wav,5f4056738318181904984b01,2021-02-24_23h57.58.049,Hungarian_step4,2020.2.3,MacIntel,60,,,,,,,,,,,,,,,,,left,0.733815,0,8,8,10,1,,,,,,,,,
,,,,,,,stim2/pa+20.wav,5f4056738318181904984b01,2021-02-24_23h57.58.049,Hungarian_step4,2020.2.3,MacIntel,60,,,,,,,,,,,,,,,,,left,0.71696,0,9,9,3,1,,,,,,,,,
,,,,,,,stim2/pa+30.wav,5f4056738318181904984b01,2021-02-24_23h57.58.049,Hungarian_step4,2020.2.3,MacIntel,60,,,,,,,,,,,,,,,,,left,0.72027,0,10,10,5,1,,,,,,,,,
,,,,,,,stim2/pa-20.wav,5f4056738318181904984b01,2021-02-24_23h57.58.049,Hungarian_step4,2020.2.3,MacIntel,60,,,,,,,,,,,,,,,,,right,0.62922,0,11,11,13,1,,,,,,,,,
,,,,,,,stim2/pa+15.wav,5f4056738318181904984b01,2021-02-24_23h57.58.049,Hungarian_step4,2020.2.3,MacIntel,60,,,,,,,,,,,,,,,,,left,0.64652,0,12,12,2,1,,,,,,,,,
,,,,,,,stim2/pa-15.wav,5f4056738318181904984b01,2021-02-24_23h57.58.049,Hungarian_step4,2020.2.3,MacIntel,60,,,,,,,,,,,,,,,,,right,0.543335,0,13,13,12,1,,,,,,,,,
,,,,,,,stim2/pa+45.wav,5f4056738318181904984b01,2021-02-24_23h57.58.049,Hungarian_step4,2020.2.3,MacIntel,60,,,,,,,,,,,,,,,,,left,0.73749,0,14,14,8,1,,,,,,,,,
,,,,,,,stim2/pa-10.wav,5f4056738318181904984b01,2021-02-24_23h57.58.049,Hungarian_step4,2020.2.3,MacIntel,60,,,,,,,,,,,,,,,,,right,0.682665,0,15,15,11,1,,,,,,,,,
,,,,,,,stim2/pa-30.wav,5f4056738318181904984b01,2021-02-24_23h57.58.049,Hungarian_step4,2020.2.3,MacIntel,60,,,,,,,,,,,,,,,,,right,1.066315,0,16,16,15,1,,,,,,,,,
,,,,,,,stim2/pa-30.wav,5f4056738318181904984b01,2021-02-24_23h57.58.049,Hungarian_step4,2020.2.3,MacIntel,60,,,,,,,,,,,,,,,,,right,0.66813,1,0,17,15,1,,,,,,,,,
,,,,,,,stim2/pa+50.wav,5f4056738318181904984b01,2021-02-24_23h57.58.049,Hungarian_step4,2020.2.3,MacIntel,60,,,,,,,,,,,,,,,,,right,1.068715,1,1,18,9,1,,,,,,,,,
,,,,,,,stim2/pa-20.wav,5f4056738318181904984b01,2021-02-24_23h57.58.049,Hungarian_step4,2020.2.3,MacIntel,60,,,,,,,,,,,,,,,,,right,0.60328,1,2,19,13,1,,,,,,,,,
,,,,,,,stim2/pa-25.wav,5f4056738318181904984b01,2021-02-24_23h57.58.049,Hungarian_step4,2020.2.3,MacIntel,60,,,,,,,,,,,,,,,,,right,0.419995,1,3,20,14,1,,,,,,,,,
,,,,,,,stim2/pa-10.wav,5f4056738318181904984b01,2021-02-24_23h57.58.049,Hungarian_step4,2020.2.3,MacIntel,60,,,,,,,,,,,,,,,,,right,0.563065,1,4,21,11,1,,,,,,,,,
,,,,,,,stim2/pa-05.wav,5f4056738318181904984b01,2021-02-24_23h57.58.049,Hungarian_step4,2020.2.3,MacIntel,60,,,,,,,,,,,,,,,,,right,0.548355,1,5,22,10,1,,,,,,,,,
,,,,,,,stim2/pa+35.wav,5f4056738318181904984b01,2021-02-24_23h57.58.049,Hungarian_step4,2020.2.3,MacIntel,60,,,,,,,,,,,,,,,,,right,0.64753,1,6,23,6,1,,,,,,,,,
,,,,,,,stim2/pa+25.wav,5f4056738318181904984b01,2021-02-24_23h57.58.049,Hungarian_step4,2020.2.3,MacIntel,60,,,,,,,,,,,,,,,,,right,0.642575,1,7,24,4,1,,,,,,,,,
,,,,,,,stim2/pa-35.wav,5f4056738318181904984b01,2021-02-24_23h57.58.049,Hungarian_step4,2020.2.3,MacIntel,60,,,,,,,,,,,,,,,,,right,0.44898,1,8,25,16,1,,,,,,,,,
,,,,,,,stim2/pa+45.wav,5f4056738318181904984b01,2021-02-24_23h57.58.049,Hungarian_step4,2020.2.3,MacIntel,60,,,,,,,,,,,,,,,,,right,0.733845,1,9,26,8,1,,,,,,,,,
,,,,,,,stim2/pa+30.wav,5f4056738318181904984b01,2021-02-24_23h57.58.049,Hungarian_step4,2020.2.3,MacIntel,60,,,,,,,,,,,,,,,,,right,0.638095,1,10,27,5,1,,,,,,,,,
,,,,,,,stim2/pa+15.wav,5f4056738318181904984b01,2021-02-24_23h57.58.049,Hungarian_step4,2020.2.3,MacIntel,60,,,,,,,,,,,,,,,,,right,0.59632,1,11,28,2,1,,,,,,,,,
,,,,,,,stim2/pa-15.wav,5f4056738318181904984b01,2021-02-24_23h57.58.049,Hungarian_step4,2020.2.3,MacIntel,60,,,,,,,,,,,,,,,,,right,0.44807,1,12,29,12,1,,,,,,,,,
,,,,,,,stim2/pa+05.wav,5f4056738318181904984b01,2021-02-24_23h57.58.049,Hungarian_step4,2020.2.3,MacIntel,60,,,,,,,,,,,,,,,,,right,0.63645,1,13,30,0,1,,,,,,,,,
,,,,,,,stim2/pa+20.wav,5f4056738318181904984b01,2021-02-24_23h57.58.049,Hungarian_step4,2020.2.3,MacIntel,60,,,,,,,,,,,,,,,,,right,0.518185,1,14,31,3,1,,,,,,,,,
,,,,,,,stim2/pa+10.wav,5f4056738318181904984b01,2021-02-24_23h57.58.049,Hungarian_step4,2020.2.3,MacIntel,60,,,,,,,,,,,,,,,,,right,0.57962,1,15,32,1,1,,,,,,,,,
,,,,,,,stim2/pa+40.wav,5f4056738318181904984b01,2021-02-24_23h57.58.049,Hungarian_step4,2020.2.3,MacIntel,60,,,,,,,,,,,,,,,,,right,0.35663,1,16,33,7,1,,,,,,,,,
,,,,,,,stim2/pa+20.wav,5f4056738318181904984b01,2021-02-24_23h57.58.049,Hungarian_step4,2020.2.3,MacIntel,60,,,,,,,,,,,,,,,,,right,0.5146,2,0,34,3,1,,,,,,,,,
,,,,,,,stim2/pa+35.wav,5f4056738318181904984b01,2021-02-24_23h57.58.049,Hungarian_step4,2020.2.3,MacIntel,60,,,,,,,,,,,,,,,,,right,0.63792,2,1,35,6,1,,,,,,,,,
,,,,,,,stim2/pa+40.wav,5f4056738318181904984b01,2021-02-24_23h57.58.049,Hungarian_step4,2020.2.3,MacIntel,60,,,,,,,,,,,,,,,,,right,0.704255,2,2,36,7,1,,,,,,,,,
,,,,,,,stim2/pa+05.wav,5f4056738318181904984b01,2021-02-24_23h57.58.049,Hungarian_step4,2020.2.3,MacIntel,60,,,,,,,,,,,,,,,,,left,0.6005,2,3,37,0,1,,,,,,,,,
,,,,,,,stim2/pa-15.wav,5f4056738318181904984b01,2021-02-24_23h57.58.049,Hungarian_step4,2020.2.3,MacIntel,60,,,,,,,,,,,,,,,,,right,0.35284,2,4,38,12,1,,,,,,,,,
,,,,,,,stim2/pa-10.wav,5f4056738318181904984b01,2021-02-24_23h57.58.049,Hungarian_step4,2020.2.3,MacIntel,60,,,,,,,,,,,,,,,,,right,0.73296,2,5,39,11,1,,,,,,,,,
,,,,,,,stim2/pa-20.wav,5f4056738318181904984b01,2021-02-24_23h57.58.049,Hungarian_step4,2020.2.3,MacIntel,60,,,,,,,,,,,,,,,,,right,0.692555,2,6,40,13,1,,,,,,,,,
,,,,,,,stim2/pa+30.wav,5f4056738318181904984b01,2021-02-24_23h57.58.049,Hungarian_step4,2020.2.3,MacIntel,60,,,,,,,,,,,,,,,,,right,0.63844,2,7,41,5,1,,,,,,,,,
,,,,,,,stim2/pa+45.wav,5f4056738318181904984b01,2021-02-24_23h57.58.049,Hungarian_step4,2020.2.3,MacIntel,60,,,,,,,,,,,,,,,,,left,0.638725,2,8,42,8,1,,,,,,,,,
,,,,,,,stim2/pa-05.wav,5f4056738318181904984b01,2021-02-24_23h57.58.049,Hungarian_step4,2020.2.3,MacIntel,60,,,,,,,,,,,,,,,,,right,0.41671,2,9,43,10,1,,,,,,,,,
,,,,,,,stim2/pa+50.wav,5f4056738318181904984b01,2021-02-24_23h57.58.049,Hungarian_step4,2020.2.3,MacIntel,60,,,,,,,,,,,,,,,,,left,0.52116,2,10,44,9,1,,,,,,,,,
,,,,,,,stim2/pa+25.wav,5f4056738318181904984b01,2021-02-24_23h57.58.049,Hungarian_step4,2020.2.3,MacIntel,60,,,,,,,,,,,,,,,,,left,0.4322,2,11,45,4,1,,,,,,,,,
,,,,,,,stim2/pa-35.wav,5f4056738318181904984b01,2021-02-24_23h57.58.049,Hungarian_step4,2020.2.3,MacIntel,60,,,,,,,,,,,,,,,,,right,0.617515,2,12,46,16,1,,,,,,,,,
,,,,,,,stim2/pa-25.wav,5f4056738318181904984b01,2021-02-24_23h57.58.049,Hungarian_step4,2020.2.3,MacIntel,60,,,,,,,,,,,,,,,,,right,0.636365,2,13,47,14,1,,,,,,,,,
,,,,,,,stim2/pa+15.wav,5f4056738318181904984b01,2021-02-24_23h57.58.049,Hungarian_step4,2020.2.3,MacIntel,60,,,,,,,,,,,,,,,,,right,0.87216,2,14,48,2,1,,,,,,,,,
,,,,,,,stim2/pa+10.wav,5f4056738318181904984b01,2021-02-24_23h57.58.049,Hungarian_step4,2020.2.3,MacIntel,60,,,,,,,,,,,,,,,,,left,0.53346,2,15,49,1,1,,,,,,,,,
,,,,,,,stim2/pa-30.wav,5f4056738318181904984b01,2021-02-24_23h57.58.049,Hungarian_step4,2020.2.3,MacIntel,60,,,,,,,,,,,,,,,,,right,0.86958,2,16,50,15,1,,,,,,,,,
,,,,,,,stim2/pa+45.wav,5f4056738318181904984b01,2021-02-24_23h57.58.049,Hungarian_step4,2020.2.3,MacIntel,60,,,,,,,,,,,,,,,,,left,1.26505,,,,,,f,3.73568,0,0,0,8,1,,
,,,,,,,stim2/pa+40.wav,5f4056738318181904984b01,2021-02-24_23h57.58.049,Hungarian_step4,2020.2.3,MacIntel,60,,,,,,,,,,,,,,,,,left,0.633545,,,,,,,,0,1,1,7,1,,
,,,,,,,stim2/pa-35.wav,5f4056738318181904984b01,2021-02-24_23h57.58.049,Hungarian_step4,2020.2.3,MacIntel,60,,,,,,,,,,,,,,,,,right,0.52326,,,,,,,,0,2,2,16,1,,
,,,,,,,stim2/pa-30.wav,5f4056738318181904984b01,2021-02-24_23h57.58.049,Hungarian_step4,2020.2.3,MacIntel,60,,,,,,,,,,,,,,,,,right,0.67145,,,,,,,,0,3,3,15,1,,
,,,,,,,stim2/pa-15.wav,5f4056738318181904984b01,2021-02-24_23h57.58.049,Hungarian_step4,2020.2.3,MacIntel,60,,,,,,,,,,,,,,,,,right,0.671045,,,,,,,,0,4,4,12,1,,
,,,,,,,stim2/pa+10.wav,5f4056738318181904984b01,2021-02-24_23h57.58.049,Hungarian_step4,2020.2.3,MacIntel,60,,,,,,,,,,,,,,,,,right,0.473055,,,,,,,,0,5,5,1,1,,
,,,,,,,stim2/pa+50.wav,5f4056738318181904984b01,2021-02-24_23h57.58.049,Hungarian_step4,2020.2.3,MacIntel,60,,,,,,,,,,,,,,,,,left,0.452445,,,,,,,,0,6,6,9,1,,
,,,,,,,stim2/pa+30.wav,5f4056738318181904984b01,2021-02-24_23h57.58.049,Hungarian_step4,2020.2.3,MacIntel,60,,,,,,,,,,,,,,,,,left,0.373835,,,,,,,,0,7,7,5,1,,
,,,,,,,stim2/pa-20.wav,5f4056738318181904984b01,2021-02-24_23h57.58.049,Hungarian_step4,2020.2.3,MacIntel,60,,,,,,,,,,,,,,,,,right,0.684565,,,,,,,,0,8,8,13,1,,
,,,,,,,stim2/pa-05.wav,5f4056738318181904984b01,2021-02-24_23h57.58.049,Hungarian_step4,2020.2.3,MacIntel,60,,,,,,,,,,,,,,,,,left,0.373685,,,,,,,,0,9,9,10,1,,
,,,,,,,stim2/pa+15.wav,5f4056738318181904984b01,2021-02-24_23h57.58.049,Hungarian_step4,2020.2.3,MacIntel,60,,,,,,,,,,,,,,,,,left,0.562565,,,,,,,,0,10,10,2,1,,
,,,,,,,stim2/pa+05.wav,5f4056738318181904984b01,2021-02-24_23h57.58.049,Hungarian_step4,2020.2.3,MacIntel,60,,,,,,,,,,,,,,,,,left,0.45058,,,,,,,,0,11,11,0,1,,
,,,,,,,stim2/pa+35.wav,5f4056738318181904984b01,2021-02-24_23h57.58.049,Hungarian_step4,2020.2.3,MacIntel,60,,,,,,,,,,,,,,,,,right,0.552605,,,,,,,,0,12,12,6,1,,
,,,,,,,stim2/pa+20.wav,5f4056738318181904984b01,2021-02-24_23h57.58.049,Hungarian_step4,2020.2.3,MacIntel,60,,,,,,,,,,,,,,,,,right,0.51801,,,,,,,,0,13,13,3,1,,
,,,,,,,stim2/pa-25.wav,5f4056738318181904984b01,2021-02-24_23h57.58.049,Hungarian_step4,2020.2.3,MacIntel,60,,,,,,,,,,,,,,,,,right,0.5158,,,,,,,,0,14,14,14,1,,
,,,,,,,stim2/pa-10.wav,5f4056738318181904984b01,2021-02-24_23h57.58.049,Hungarian_step4,2020.2.3,MacIntel,60,,,,,,,,,,,,,,,,,right,0.67148,,,,,,,,0,15,15,11,1,,
,,,,,,,stim2/pa+25.wav,5f4056738318181904984b01,2021-02-24_23h57.58.049,Hungarian_step4,2020.2.3,MacIntel,60,,,,,,,,,,,,,,,,,right,0.92113,,,,,,,,0,16,16,4,1,,
,,,,,,,stim2/pa+30.wav,5f4056738318181904984b01,2021-02-24_23h57.58.049,Hungarian_step4,2020.2.3,MacIntel,60,,,,,,,,,,,,,,,,,left,0.96926,,,,,,,,1,0,17,5,1,,
,,,,,,,stim2/pa+15.wav,5f4056738318181904984b01,2021-02-24_23h57.58.049,Hungarian_step4,2020.2.3,MacIntel,60,,,,,,,,,,,,,,,,,left,0.900575,,,,,,,,1,1,18,2,1,,
,,,,,,,stim2/pa+50.wav,5f4056738318181904984b01,2021-02-24_23h57.58.049,Hungarian_step4,2020.2.3,MacIntel,60,,,,,,,,,,,,,,,,,right,0.8873,,,,,,,,1,2,19,9,1,,
,,,,,,,stim2/pa+10.wav,5f4056738318181904984b01,2021-02-24_23h57.58.049,Hungarian_step4,2020.2.3,MacIntel,60,,,,,,,,,,,,,,,,,left,1.998505,,,,,,,,1,3,20,1,1,,
,,,,,,,stim2/pa+20.wav,5f4056738318181904984b01,2021-02-24_23h57.58.049,Hungarian_step4,2020.2.3,MacIntel,60,,,,,,,,,,,,,,,,,left,0.465805,,,,,,,,1,4,21,3,1,,
,,,,,,,stim2/pa-30.wav,5f4056738318181904984b01,2021-02-24_23h57.58.049,Hungarian_step4,2020.2.3,MacIntel,60,,,,,,,,,,,,,,,,,right,0.770925,,,,,,,,1,5,22,15,1,,
,,,,,,,stim2/pa-20.wav,5f4056738318181904984b01,2021-02-24_23h57.58.049,Hungarian_step4,2020.2.3,MacIntel,60,,,,,,,,,,,,,,,,,right,0.687765,,,,,,,,1,6,23,13,1,,
,,,,,,,stim2/pa+05.wav,5f4056738318181904984b01,2021-02-24_23h57.58.049,Hungarian_step4,2020.2.3,MacIntel,60,,,,,,,,,,,,,,,,,right,1.197935,,,,,,,,1,7,24,0,1,,
,,,,,,,stim2/pa+25.wav,5f4056738318181904984b01,2021-02-24_23h57.58.049,Hungarian_step4,2020.2.3,MacIntel,60,,,,,,,,,,,,,,,,,right,1.304905,,,,,,,,1,8,25,4,1,,
,,,,,,,stim2/pa-05.wav,5f4056738318181904984b01,2021-02-24_23h57.58.049,Hungarian_step4,2020.2.3,MacIntel,60,,,,,,,,,,,,,,,,,right,0.42968,,,,,,,,1,9,26,10,1,,
,,,,,,,stim2/pa-10.wav,5f4056738318181904984b01,2021-02-24_23h57.58.049,Hungarian_step4,2020.2.3,MacIntel,60,,,,,,,,,,,,,,,,,right,0.50052,,,,,,,,1,10,27,11,1,,
,,,,,,,stim2/pa+35.wav,5f4056738318181904984b01,2021-02-24_23h57.58.049,Hungarian_step4,2020.2.3,MacIntel,60,,,,,,,,,,,,,,,,,right,0.650345,,,,,,,,1,11,28,6,1,,
,,,,,,,stim2/pa+40.wav,5f4056738318181904984b01,2021-02-24_23h57.58.049,Hungarian_step4,2020.2.3,MacIntel,60,,,,,,,,,,,,,,,,,left,0.70328,,,,,,,,1,12,29,7,1,,
,,,,,,,stim2/pa-15.wav,5f4056738318181904984b01,2021-02-24_23h57.58.049,Hungarian_step4,2020.2.3,MacIntel,60,,,,,,,,,,,,,,,,,right,0.85212,,,,,,,,1,13,30,12,1,,
,,,,,,,stim2/pa-25.wav,5f4056738318181904984b01,2021-02-24_23h57.58.049,Hungarian_step4,2020.2.3,MacIntel,60,,,,,,,,,,,,,,,,,right,0.86766,,,,,,,,1,14,31,14,1,,
,,,,,,,stim2/pa-35.wav,5f4056738318181904984b01,2021-02-24_23h57.58.049,Hungarian_step4,2020.2.3,MacIntel,60,,,,,,,,,,,,,,,,,right,0.590565,,,,,,,,1,15,32,16,1,,
,,,,,,,stim2/pa+45.wav,5f4056738318181904984b01,2021-02-24_23h57.58.049,Hungarian_step4,2020.2.3,MacIntel,60,,,,,,,,,,,,,,,,,right,1.546155,,,,,,,,1,16,33,8,1,,
,,,,,,,,5f4056738318181904984b01,2021-02-24_23h57.58.049,Hungarian_step4,2020.2.3,MacIntel,60,,,,,,,,,,,,,,,,,,,,,,,,,,,,,,,space,2.440975
