resp.keys,resp.rt,trials.thisRepN,trials.thisTrialN,trials.thisN,trials.thisIndex,trials.ran,stimuli,participant,date,expName,psychopyVersion,OS,frameRate,gotResponse.keys,gotResponse.rt,resp_2.keys,resp_2.rt,trials_2.thisRepN,trials_2.thisTrialN,trials_2.thisN,trials_2.thisIndex,trials_2.ran,key_resp_3.keys,key_resp_3.rt,trials_4.thisRepN,trials_4.thisTrialN,trials_4.thisN,trials_4.thisIndex,trials_4.ran,resp_3.keys,resp_3.rt,trials_3.thisRepN,trials_3.thisTrialN,trials_3.thisN,trials_3.thisIndex,trials_3.ran,key_resp_2.keys,key_resp_2.rt,trials_5.thisRepN,trials_5.thisTrialN,trials_5.thisN,trials_5.thisIndex,trials_5.ran,key_resp.keys,key_resp.rt
right,1.838035,0,0,0,1,1,stim/VC_11.wav,5f6916f985575a0f22ec8f69,2021-02-24_17h54.53.341,Hungarian_step4,2020.2.3,Win32,60,,,,,,,,,,,,,,,,,,,,,,,,,,,,,,,,
left,0.58471,0,1,1,0,1,stim/VC_01.wav,5f6916f985575a0f22ec8f69,2021-02-24_17h54.53.341,Hungarian_step4,2020.2.3,Win32,60,,,,,,,,,,,,,,,,,,,,,,,,,,,,,,,,
,,,,,,,stim/VC_08.wav,5f6916f985575a0f22ec8f69,2021-02-24_17h54.53.341,Hungarian_step4,2020.2.3,Win32,60,space,0.67806,right,0.694595,0,0,0,7,1,,,,,,,,,,,,,,,,,,,,,,,
,,,,,,,stim/VC_01.wav,5f6916f985575a0f22ec8f69,2021-02-24_17h54.53.341,Hungarian_step4,2020.2.3,Win32,60,,,left,0.412065,0,1,1,0,1,,,,,,,,,,,,,,,,,,,,,,,
,,,,,,,stim/VC_07.wav,5f6916f985575a0f22ec8f69,2021-02-24_17h54.53.341,Hungarian_step4,2020.2.3,Win32,60,,,right,0.46508,0,2,2,6,1,,,,,,,,,,,,,,,,,,,,,,,
,,,,,,,stim/VC_02.wav,5f6916f985575a0f22ec8f69,2021-02-24_17h54.53.341,Hungarian_step4,2020.2.3,Win32,60,,,left,0.429865,0,3,3,1,1,,,,,,,,,,,,,,,,,,,,,,,
,,,,,,,stim/VC_06.wav,5f6916f985575a0f22ec8f69,2021-02-24_17h54.53.341,Hungarian_step4,2020.2.3,Win32,60,,,right,0.503245,0,4,4,5,1,,,,,,,,,,,,,,,,,,,,,,,
,,,,,,,stim/VC_11.wav,5f6916f985575a0f22ec8f69,2021-02-24_17h54.53.341,Hungarian_step4,2020.2.3,Win32,60,,,right,0.66496,0,5,5,10,1,,,,,,,,,,,,,,,,,,,,,,,
,,,,,,,stim/VC_03.wav,5f6916f985575a0f22ec8f69,2021-02-24_17h54.53.341,Hungarian_step4,2020.2.3,Win32,60,,,left,0.550375,0,6,6,2,1,,,,,,,,,,,,,,,,,,,,,,,
,,,,,,,stim/VC_10.wav,5f6916f985575a0f22ec8f69,2021-02-24_17h54.53.341,Hungarian_step4,2020.2.3,Win32,60,,,right,0.485585,0,7,7,9,1,,,,,,,,,,,,,,,,,,,,,,,
,,,,,,,stim/VC_04.wav,5f6916f985575a0f22ec8f69,2021-02-24_17h54.53.341,Hungarian_step4,2020.2.3,Win32,60,,,left,0.482125,0,8,8,3,1,,,,,,,,,,,,,,,,,,,,,,,
,,,,,,,stim/VC_05.wav,5f6916f985575a0f22ec8f69,2021-02-24_17h54.53.341,Hungarian_step4,2020.2.3,Win32,60,,,left,0.48101,0,9,9,4,1,,,,,,,,,,,,,,,,,,,,,,,
,,,,,,,stim/VC_09.wav,5f6916f985575a0f22ec8f69,2021-02-24_17h54.53.341,Hungarian_step4,2020.2.3,Win32,60,,,right,0.44212,0,10,10,8,1,,,,,,,,,,,,,,,,,,,,,,,
,,,,,,,stim/VC_11.wav,5f6916f985575a0f22ec8f69,2021-02-24_17h54.53.341,Hungarian_step4,2020.2.3,Win32,60,,,right,0.484835,1,0,11,10,1,,,,,,,,,,,,,,,,,,,,,,,
,,,,,,,stim/VC_10.wav,5f6916f985575a0f22ec8f69,2021-02-24_17h54.53.341,Hungarian_step4,2020.2.3,Win32,60,,,right,0.49498,1,1,12,9,1,,,,,,,,,,,,,,,,,,,,,,,
,,,,,,,stim/VC_01.wav,5f6916f985575a0f22ec8f69,2021-02-24_17h54.53.341,Hungarian_step4,2020.2.3,Win32,60,,,left,0.445125,1,2,13,0,1,,,,,,,,,,,,,,,,,,,,,,,
,,,,,,,stim/VC_02.wav,5f6916f985575a0f22ec8f69,2021-02-24_17h54.53.341,Hungarian_step4,2020.2.3,Win32,60,,,left,0.47335,1,3,14,1,1,,,,,,,,,,,,,,,,,,,,,,,
,,,,,,,stim/VC_03.wav,5f6916f985575a0f22ec8f69,2021-02-24_17h54.53.341,Hungarian_step4,2020.2.3,Win32,60,,,left,0.48551,1,4,15,2,1,,,,,,,,,,,,,,,,,,,,,,,
,,,,,,,stim/VC_04.wav,5f6916f985575a0f22ec8f69,2021-02-24_17h54.53.341,Hungarian_step4,2020.2.3,Win32,60,,,left,0.591165,1,5,16,3,1,,,,,,,,,,,,,,,,,,,,,,,
,,,,,,,stim/VC_09.wav,5f6916f985575a0f22ec8f69,2021-02-24_17h54.53.341,Hungarian_step4,2020.2.3,Win32,60,,,right,0.560795,1,6,17,8,1,,,,,,,,,,,,,,,,,,,,,,,
,,,,,,,stim/VC_05.wav,5f6916f985575a0f22ec8f69,2021-02-24_17h54.53.341,Hungarian_step4,2020.2.3,Win32,60,,,left,0.633025,1,7,18,4,1,,,,,,,,,,,,,,,,,,,,,,,
,,,,,,,stim/VC_08.wav,5f6916f985575a0f22ec8f69,2021-02-24_17h54.53.341,Hungarian_step4,2020.2.3,Win32,60,,,right,0.7011,1,8,19,7,1,,,,,,,,,,,,,,,,,,,,,,,
,,,,,,,stim/VC_06.wav,5f6916f985575a0f22ec8f69,2021-02-24_17h54.53.341,Hungarian_step4,2020.2.3,Win32,60,,,left,0.559195,1,9,20,5,1,,,,,,,,,,,,,,,,,,,,,,,
,,,,,,,stim/VC_07.wav,5f6916f985575a0f22ec8f69,2021-02-24_17h54.53.341,Hungarian_step4,2020.2.3,Win32,60,,,left,0.55714,1,10,21,6,1,,,,,,,,,,,,,,,,,,,,,,,
,,,,,,,stim/VC_05.wav,5f6916f985575a0f22ec8f69,2021-02-24_17h54.53.341,Hungarian_step4,2020.2.3,Win32,60,,,left,0.44188,2,0,22,4,1,,,,,,,,,,,,,,,,,,,,,,,
,,,,,,,stim/VC_03.wav,5f6916f985575a0f22ec8f69,2021-02-24_17h54.53.341,Hungarian_step4,2020.2.3,Win32,60,,,left,0.462325,2,1,23,2,1,,,,,,,,,,,,,,,,,,,,,,,
,,,,,,,stim/VC_07.wav,5f6916f985575a0f22ec8f69,2021-02-24_17h54.53.341,Hungarian_step4,2020.2.3,Win32,60,,,left,1.29459,2,2,24,6,1,,,,,,,,,,,,,,,,,,,,,,,
,,,,,,,stim/VC_09.wav,5f6916f985575a0f22ec8f69,2021-02-24_17h54.53.341,Hungarian_step4,2020.2.3,Win32,60,,,right,0.51946,2,3,25,8,1,,,,,,,,,,,,,,,,,,,,,,,
,,,,,,,stim/VC_01.wav,5f6916f985575a0f22ec8f69,2021-02-24_17h54.53.341,Hungarian_step4,2020.2.3,Win32,60,,,left,0.46133,2,4,26,0,1,,,,,,,,,,,,,,,,,,,,,,,
,,,,,,,stim/VC_04.wav,5f6916f985575a0f22ec8f69,2021-02-24_17h54.53.341,Hungarian_step4,2020.2.3,Win32,60,,,left,0.498525,2,5,27,3,1,,,,,,,,,,,,,,,,,,,,,,,
,,,,,,,stim/VC_08.wav,5f6916f985575a0f22ec8f69,2021-02-24_17h54.53.341,Hungarian_step4,2020.2.3,Win32,60,,,right,1.64119,2,6,28,7,1,,,,,,,,,,,,,,,,,,,,,,,
,,,,,,,stim/VC_10.wav,5f6916f985575a0f22ec8f69,2021-02-24_17h54.53.341,Hungarian_step4,2020.2.3,Win32,60,,,right,0.499355,2,7,29,9,1,,,,,,,,,,,,,,,,,,,,,,,
,,,,,,,stim/VC_11.wav,5f6916f985575a0f22ec8f69,2021-02-24_17h54.53.341,Hungarian_step4,2020.2.3,Win32,60,,,right,0.433935,2,8,30,10,1,,,,,,,,,,,,,,,,,,,,,,,
,,,,,,,stim/VC_06.wav,5f6916f985575a0f22ec8f69,2021-02-24_17h54.53.341,Hungarian_step4,2020.2.3,Win32,60,,,left,0.65059,2,9,31,5,1,,,,,,,,,,,,,,,,,,,,,,,
,,,,,,,stim/VC_02.wav,5f6916f985575a0f22ec8f69,2021-02-24_17h54.53.341,Hungarian_step4,2020.2.3,Win32,60,,,left,0.43947,2,10,32,1,1,,,,,,,,,,,,,,,,,,,,,,,
,,,,,,,stim/VC_11.wav,5f6916f985575a0f22ec8f69,2021-02-24_17h54.53.341,Hungarian_step4,2020.2.3,Win32,60,,,right,0.705375,,,,,,3,2.143055,0,0,0,10,1,,,,,,,,,,,,,,,,
,,,,,,,stim/VC_05.wav,5f6916f985575a0f22ec8f69,2021-02-24_17h54.53.341,Hungarian_step4,2020.2.3,Win32,60,,,left,0.52298,,,,,,,,0,1,1,4,1,,,,,,,,,,,,,,,,
,,,,,,,stim/VC_06.wav,5f6916f985575a0f22ec8f69,2021-02-24_17h54.53.341,Hungarian_step4,2020.2.3,Win32,60,,,left,0.42068,,,,,,,,0,2,2,5,1,,,,,,,,,,,,,,,,
,,,,,,,stim/VC_07.wav,5f6916f985575a0f22ec8f69,2021-02-24_17h54.53.341,Hungarian_step4,2020.2.3,Win32,60,,,left,0.406,,,,,,,,0,3,3,6,1,,,,,,,,,,,,,,,,
,,,,,,,stim/VC_03.wav,5f6916f985575a0f22ec8f69,2021-02-24_17h54.53.341,Hungarian_step4,2020.2.3,Win32,60,,,left,0.42692,,,,,,,,0,4,4,2,1,,,,,,,,,,,,,,,,
,,,,,,,stim/VC_10.wav,5f6916f985575a0f22ec8f69,2021-02-24_17h54.53.341,Hungarian_step4,2020.2.3,Win32,60,,,right,0.44072,,,,,,,,0,5,5,9,1,,,,,,,,,,,,,,,,
,,,,,,,stim/VC_08.wav,5f6916f985575a0f22ec8f69,2021-02-24_17h54.53.341,Hungarian_step4,2020.2.3,Win32,60,,,right,0.46223,,,,,,,,0,6,6,7,1,,,,,,,,,,,,,,,,
,,,,,,,stim/VC_09.wav,5f6916f985575a0f22ec8f69,2021-02-24_17h54.53.341,Hungarian_step4,2020.2.3,Win32,60,,,right,0.459415,,,,,,,,0,7,7,8,1,,,,,,,,,,,,,,,,
,,,,,,,stim/VC_04.wav,5f6916f985575a0f22ec8f69,2021-02-24_17h54.53.341,Hungarian_step4,2020.2.3,Win32,60,,,left,0.502795,,,,,,,,0,8,8,3,1,,,,,,,,,,,,,,,,
,,,,,,,stim/VC_02.wav,5f6916f985575a0f22ec8f69,2021-02-24_17h54.53.341,Hungarian_step4,2020.2.3,Win32,60,,,left,0.39135,,,,,,,,0,9,9,1,1,,,,,,,,,,,,,,,,
,,,,,,,stim/VC_01.wav,5f6916f985575a0f22ec8f69,2021-02-24_17h54.53.341,Hungarian_step4,2020.2.3,Win32,60,,,left,0.40494,,,,,,,,0,10,10,0,1,,,,,,,,,,,,,,,,
,,,,,,,stim/VC_03.wav,5f6916f985575a0f22ec8f69,2021-02-24_17h54.53.341,Hungarian_step4,2020.2.3,Win32,60,,,left,0.43269,,,,,,,,1,0,11,2,1,,,,,,,,,,,,,,,,
,,,,,,,stim/VC_05.wav,5f6916f985575a0f22ec8f69,2021-02-24_17h54.53.341,Hungarian_step4,2020.2.3,Win32,60,,,left,0.477695,,,,,,,,1,1,12,4,1,,,,,,,,,,,,,,,,
,,,,,,,stim/VC_07.wav,5f6916f985575a0f22ec8f69,2021-02-24_17h54.53.341,Hungarian_step4,2020.2.3,Win32,60,,,left,0.65887,,,,,,,,1,2,13,6,1,,,,,,,,,,,,,,,,
,,,,,,,stim/VC_04.wav,5f6916f985575a0f22ec8f69,2021-02-24_17h54.53.341,Hungarian_step4,2020.2.3,Win32,60,,,left,0.51364,,,,,,,,1,3,14,3,1,,,,,,,,,,,,,,,,
,,,,,,,stim/VC_10.wav,5f6916f985575a0f22ec8f69,2021-02-24_17h54.53.341,Hungarian_step4,2020.2.3,Win32,60,,,right,0.455555,,,,,,,,1,4,15,9,1,,,,,,,,,,,,,,,,
,,,,,,,stim/VC_06.wav,5f6916f985575a0f22ec8f69,2021-02-24_17h54.53.341,Hungarian_step4,2020.2.3,Win32,60,,,left,0.54169,,,,,,,,1,5,16,5,1,,,,,,,,,,,,,,,,
,,,,,,,stim/VC_11.wav,5f6916f985575a0f22ec8f69,2021-02-24_17h54.53.341,Hungarian_step4,2020.2.3,Win32,60,,,right,0.418635,,,,,,,,1,6,17,10,1,,,,,,,,,,,,,,,,
,,,,,,,stim/VC_09.wav,5f6916f985575a0f22ec8f69,2021-02-24_17h54.53.341,Hungarian_step4,2020.2.3,Win32,60,,,right,0.393915,,,,,,,,1,7,18,8,1,,,,,,,,,,,,,,,,
,,,,,,,stim/VC_01.wav,5f6916f985575a0f22ec8f69,2021-02-24_17h54.53.341,Hungarian_step4,2020.2.3,Win32,60,,,left,0.416205,,,,,,,,1,8,19,0,1,,,,,,,,,,,,,,,,
,,,,,,,stim/VC_08.wav,5f6916f985575a0f22ec8f69,2021-02-24_17h54.53.341,Hungarian_step4,2020.2.3,Win32,60,,,right,0.384835,,,,,,,,1,9,20,7,1,,,,,,,,,,,,,,,,
,,,,,,,stim/VC_02.wav,5f6916f985575a0f22ec8f69,2021-02-24_17h54.53.341,Hungarian_step4,2020.2.3,Win32,60,,,left,0.39406,,,,,,,,1,10,21,1,1,,,,,,,,,,,,,,,,
,,,,,,,stim2/pa-20.wav,5f6916f985575a0f22ec8f69,2021-02-24_17h54.53.341,Hungarian_step4,2020.2.3,Win32,60,,,,,,,,,,,,,,,,,right,2.703315,0,0,0,13,1,,,,,,,,,
,,,,,,,stim2/pa+50.wav,5f6916f985575a0f22ec8f69,2021-02-24_17h54.53.341,Hungarian_step4,2020.2.3,Win32,60,,,,,,,,,,,,,,,,,left,0.6767,0,1,1,9,1,,,,,,,,,
,,,,,,,stim2/pa-35.wav,5f6916f985575a0f22ec8f69,2021-02-24_17h54.53.341,Hungarian_step4,2020.2.3,Win32,60,,,,,,,,,,,,,,,,,right,1.05971,0,2,2,16,1,,,,,,,,,
,,,,,,,stim2/pa-05.wav,5f6916f985575a0f22ec8f69,2021-02-24_17h54.53.341,Hungarian_step4,2020.2.3,Win32,60,,,,,,,,,,,,,,,,,left,0.421665,0,3,3,10,1,,,,,,,,,
,,,,,,,stim2/pa+45.wav,5f6916f985575a0f22ec8f69,2021-02-24_17h54.53.341,Hungarian_step4,2020.2.3,Win32,60,,,,,,,,,,,,,,,,,right,0.694135,0,4,4,8,1,,,,,,,,,
,,,,,,,stim2/pa-30.wav,5f6916f985575a0f22ec8f69,2021-02-24_17h54.53.341,Hungarian_step4,2020.2.3,Win32,60,,,,,,,,,,,,,,,,,right,0.52368,0,5,5,15,1,,,,,,,,,
,,,,,,,stim2/pa+15.wav,5f6916f985575a0f22ec8f69,2021-02-24_17h54.53.341,Hungarian_step4,2020.2.3,Win32,60,,,,,,,,,,,,,,,,,left,0.540895,0,6,6,2,1,,,,,,,,,
,,,,,,,stim2/pa+25.wav,5f6916f985575a0f22ec8f69,2021-02-24_17h54.53.341,Hungarian_step4,2020.2.3,Win32,60,,,,,,,,,,,,,,,,,left,1.171615,0,7,7,4,1,,,,,,,,,
,,,,,,,stim2/pa+10.wav,5f6916f985575a0f22ec8f69,2021-02-24_17h54.53.341,Hungarian_step4,2020.2.3,Win32,60,,,,,,,,,,,,,,,,,right,0.43097,0,8,8,1,1,,,,,,,,,
,,,,,,,stim2/pa+20.wav,5f6916f985575a0f22ec8f69,2021-02-24_17h54.53.341,Hungarian_step4,2020.2.3,Win32,60,,,,,,,,,,,,,,,,,left,0.42188,0,9,9,3,1,,,,,,,,,
,,,,,,,stim2/pa-10.wav,5f6916f985575a0f22ec8f69,2021-02-24_17h54.53.341,Hungarian_step4,2020.2.3,Win32,60,,,,,,,,,,,,,,,,,right,0.472905,0,10,10,11,1,,,,,,,,,
,,,,,,,stim2/pa-25.wav,5f6916f985575a0f22ec8f69,2021-02-24_17h54.53.341,Hungarian_step4,2020.2.3,Win32,60,,,,,,,,,,,,,,,,,right,0.508785,0,11,11,14,1,,,,,,,,,
,,,,,,,stim2/pa+40.wav,5f6916f985575a0f22ec8f69,2021-02-24_17h54.53.341,Hungarian_step4,2020.2.3,Win32,60,,,,,,,,,,,,,,,,,left,1.31766,0,12,12,7,1,,,,,,,,,
,,,,,,,stim2/pa+30.wav,5f6916f985575a0f22ec8f69,2021-02-24_17h54.53.341,Hungarian_step4,2020.2.3,Win32,60,,,,,,,,,,,,,,,,,left,0.447275,0,13,13,5,1,,,,,,,,,
,,,,,,,stim2/pa+05.wav,5f6916f985575a0f22ec8f69,2021-02-24_17h54.53.341,Hungarian_step4,2020.2.3,Win32,60,,,,,,,,,,,,,,,,,right,0.524875,0,14,14,0,1,,,,,,,,,
,,,,,,,stim2/pa-15.wav,5f6916f985575a0f22ec8f69,2021-02-24_17h54.53.341,Hungarian_step4,2020.2.3,Win32,60,,,,,,,,,,,,,,,,,right,0.604965,0,15,15,12,1,,,,,,,,,
,,,,,,,stim2/pa+35.wav,5f6916f985575a0f22ec8f69,2021-02-24_17h54.53.341,Hungarian_step4,2020.2.3,Win32,60,,,,,,,,,,,,,,,,,left,0.541965,0,16,16,6,1,,,,,,,,,
,,,,,,,stim2/pa+50.wav,5f6916f985575a0f22ec8f69,2021-02-24_17h54.53.341,Hungarian_step4,2020.2.3,Win32,60,,,,,,,,,,,,,,,,,right,0.694255,1,0,17,9,1,,,,,,,,,
,,,,,,,stim2/pa+35.wav,5f6916f985575a0f22ec8f69,2021-02-24_17h54.53.341,Hungarian_step4,2020.2.3,Win32,60,,,,,,,,,,,,,,,,,right,0.55925,1,1,18,6,1,,,,,,,,,
,,,,,,,stim2/pa-25.wav,5f6916f985575a0f22ec8f69,2021-02-24_17h54.53.341,Hungarian_step4,2020.2.3,Win32,60,,,,,,,,,,,,,,,,,right,0.584625,1,2,19,14,1,,,,,,,,,
,,,,,,,stim2/pa-35.wav,5f6916f985575a0f22ec8f69,2021-02-24_17h54.53.341,Hungarian_step4,2020.2.3,Win32,60,,,,,,,,,,,,,,,,,right,0.649345,1,3,20,16,1,,,,,,,,,
,,,,,,,stim2/pa+15.wav,5f6916f985575a0f22ec8f69,2021-02-24_17h54.53.341,Hungarian_step4,2020.2.3,Win32,60,,,,,,,,,,,,,,,,,left,0.439725,1,4,21,2,1,,,,,,,,,
,,,,,,,stim2/pa-30.wav,5f6916f985575a0f22ec8f69,2021-02-24_17h54.53.341,Hungarian_step4,2020.2.3,Win32,60,,,,,,,,,,,,,,,,,right,0.50603,1,5,22,15,1,,,,,,,,,
,,,,,,,stim2/pa-05.wav,5f6916f985575a0f22ec8f69,2021-02-24_17h54.53.341,Hungarian_step4,2020.2.3,Win32,60,,,,,,,,,,,,,,,,,right,0.40738,1,6,23,10,1,,,,,,,,,
,,,,,,,stim2/pa+10.wav,5f6916f985575a0f22ec8f69,2021-02-24_17h54.53.341,Hungarian_step4,2020.2.3,Win32,60,,,,,,,,,,,,,,,,,left,0.489175,1,7,24,1,1,,,,,,,,,
,,,,,,,stim2/pa+30.wav,5f6916f985575a0f22ec8f69,2021-02-24_17h54.53.341,Hungarian_step4,2020.2.3,Win32,60,,,,,,,,,,,,,,,,,left,1.01642,1,8,25,5,1,,,,,,,,,
,,,,,,,stim2/pa+40.wav,5f6916f985575a0f22ec8f69,2021-02-24_17h54.53.341,Hungarian_step4,2020.2.3,Win32,60,,,,,,,,,,,,,,,,,right,0.40046,1,9,26,7,1,,,,,,,,,
,,,,,,,stim2/pa+45.wav,5f6916f985575a0f22ec8f69,2021-02-24_17h54.53.341,Hungarian_step4,2020.2.3,Win32,60,,,,,,,,,,,,,,,,,right,0.43394,1,10,27,8,1,,,,,,,,,
,,,,,,,stim2/pa-10.wav,5f6916f985575a0f22ec8f69,2021-02-24_17h54.53.341,Hungarian_step4,2020.2.3,Win32,60,,,,,,,,,,,,,,,,,right,0.49557,1,11,28,11,1,,,,,,,,,
,,,,,,,stim2/pa-20.wav,5f6916f985575a0f22ec8f69,2021-02-24_17h54.53.341,Hungarian_step4,2020.2.3,Win32,60,,,,,,,,,,,,,,,,,right,0.45897,1,12,29,13,1,,,,,,,,,
,,,,,,,stim2/pa-15.wav,5f6916f985575a0f22ec8f69,2021-02-24_17h54.53.341,Hungarian_step4,2020.2.3,Win32,60,,,,,,,,,,,,,,,,,right,0.525685,1,13,30,12,1,,,,,,,,,
,,,,,,,stim2/pa+20.wav,5f6916f985575a0f22ec8f69,2021-02-24_17h54.53.341,Hungarian_step4,2020.2.3,Win32,60,,,,,,,,,,,,,,,,,right,0.70963,1,14,31,3,1,,,,,,,,,
,,,,,,,stim2/pa+25.wav,5f6916f985575a0f22ec8f69,2021-02-24_17h54.53.341,Hungarian_step4,2020.2.3,Win32,60,,,,,,,,,,,,,,,,,right,0.634935,1,15,32,4,1,,,,,,,,,
,,,,,,,stim2/pa+05.wav,5f6916f985575a0f22ec8f69,2021-02-24_17h54.53.341,Hungarian_step4,2020.2.3,Win32,60,,,,,,,,,,,,,,,,,left,0.545255,1,16,33,0,1,,,,,,,,,
,,,,,,,stim2/pa-10.wav,5f6916f985575a0f22ec8f69,2021-02-24_17h54.53.341,Hungarian_step4,2020.2.3,Win32,60,,,,,,,,,,,,,,,,,right,0.457405,2,0,34,11,1,,,,,,,,,
,,,,,,,stim2/pa+50.wav,5f6916f985575a0f22ec8f69,2021-02-24_17h54.53.341,Hungarian_step4,2020.2.3,Win32,60,,,,,,,,,,,,,,,,,right,0.727345,2,1,35,9,1,,,,,,,,,
,,,,,,,stim2/pa-25.wav,5f6916f985575a0f22ec8f69,2021-02-24_17h54.53.341,Hungarian_step4,2020.2.3,Win32,60,,,,,,,,,,,,,,,,,right,0.424,2,2,36,14,1,,,,,,,,,
,,,,,,,stim2/pa+30.wav,5f6916f985575a0f22ec8f69,2021-02-24_17h54.53.341,Hungarian_step4,2020.2.3,Win32,60,,,,,,,,,,,,,,,,,left,1.04857,2,3,37,5,1,,,,,,,,,
,,,,,,,stim2/pa+20.wav,5f6916f985575a0f22ec8f69,2021-02-24_17h54.53.341,Hungarian_step4,2020.2.3,Win32,60,,,,,,,,,,,,,,,,,right,0.47486,2,4,38,3,1,,,,,,,,,
,,,,,,,stim2/pa+25.wav,5f6916f985575a0f22ec8f69,2021-02-24_17h54.53.341,Hungarian_step4,2020.2.3,Win32,60,,,,,,,,,,,,,,,,,left,0.438625,2,5,39,4,1,,,,,,,,,
,,,,,,,stim2/pa+35.wav,5f6916f985575a0f22ec8f69,2021-02-24_17h54.53.341,Hungarian_step4,2020.2.3,Win32,60,,,,,,,,,,,,,,,,,right,0.40177,2,6,40,6,1,,,,,,,,,
,,,,,,,stim2/pa-35.wav,5f6916f985575a0f22ec8f69,2021-02-24_17h54.53.341,Hungarian_step4,2020.2.3,Win32,60,,,,,,,,,,,,,,,,,right,0.54025,2,7,41,16,1,,,,,,,,,
,,,,,,,stim2/pa+10.wav,5f6916f985575a0f22ec8f69,2021-02-24_17h54.53.341,Hungarian_step4,2020.2.3,Win32,60,,,,,,,,,,,,,,,,,left,0.42031,2,8,42,1,1,,,,,,,,,
,,,,,,,stim2/pa+15.wav,5f6916f985575a0f22ec8f69,2021-02-24_17h54.53.341,Hungarian_step4,2020.2.3,Win32,60,,,,,,,,,,,,,,,,,left,0.482245,2,9,43,2,1,,,,,,,,,
,,,,,,,stim2/pa+05.wav,5f6916f985575a0f22ec8f69,2021-02-24_17h54.53.341,Hungarian_step4,2020.2.3,Win32,60,,,,,,,,,,,,,,,,,right,0.430235,2,10,44,0,1,,,,,,,,,
,,,,,,,stim2/pa-05.wav,5f6916f985575a0f22ec8f69,2021-02-24_17h54.53.341,Hungarian_step4,2020.2.3,Win32,60,,,,,,,,,,,,,,,,,right,0.40151,2,11,45,10,1,,,,,,,,,
,,,,,,,stim2/pa+45.wav,5f6916f985575a0f22ec8f69,2021-02-24_17h54.53.341,Hungarian_step4,2020.2.3,Win32,60,,,,,,,,,,,,,,,,,right,0.46945,2,12,46,8,1,,,,,,,,,
,,,,,,,stim2/pa-15.wav,5f6916f985575a0f22ec8f69,2021-02-24_17h54.53.341,Hungarian_step4,2020.2.3,Win32,60,,,,,,,,,,,,,,,,,right,0.430945,2,13,47,12,1,,,,,,,,,
,,,,,,,stim2/pa-20.wav,5f6916f985575a0f22ec8f69,2021-02-24_17h54.53.341,Hungarian_step4,2020.2.3,Win32,60,,,,,,,,,,,,,,,,,left,0.425695,2,14,48,13,1,,,,,,,,,
,,,,,,,stim2/pa-30.wav,5f6916f985575a0f22ec8f69,2021-02-24_17h54.53.341,Hungarian_step4,2020.2.3,Win32,60,,,,,,,,,,,,,,,,,right,0.610165,2,15,49,15,1,,,,,,,,,
,,,,,,,stim2/pa+40.wav,5f6916f985575a0f22ec8f69,2021-02-24_17h54.53.341,Hungarian_step4,2020.2.3,Win32,60,,,,,,,,,,,,,,,,,left,0.46059,2,16,50,7,1,,,,,,,,,
,,,,,,,stim2/pa+40.wav,5f6916f985575a0f22ec8f69,2021-02-24_17h54.53.341,Hungarian_step4,2020.2.3,Win32,60,,,,,,,,,,,,,,,,,right,1.42859,,,,,,f,1.88064,0,0,0,7,1,,
,,,,,,,stim2/pa-35.wav,5f6916f985575a0f22ec8f69,2021-02-24_17h54.53.341,Hungarian_step4,2020.2.3,Win32,60,,,,,,,,,,,,,,,,,right,0.4455,,,,,,,,0,1,1,16,1,,
,,,,,,,stim2/pa+30.wav,5f6916f985575a0f22ec8f69,2021-02-24_17h54.53.341,Hungarian_step4,2020.2.3,Win32,60,,,,,,,,,,,,,,,,,left,0.382035,,,,,,,,0,2,2,5,1,,
,,,,,,,stim2/pa+35.wav,5f6916f985575a0f22ec8f69,2021-02-24_17h54.53.341,Hungarian_step4,2020.2.3,Win32,60,,,,,,,,,,,,,,,,,left,0.420475,,,,,,,,0,3,3,6,1,,
,,,,,,,stim2/pa-30.wav,5f6916f985575a0f22ec8f69,2021-02-24_17h54.53.341,Hungarian_step4,2020.2.3,Win32,60,,,,,,,,,,,,,,,,,right,0.39113,,,,,,,,0,4,4,15,1,,
,,,,,,,stim2/pa+10.wav,5f6916f985575a0f22ec8f69,2021-02-24_17h54.53.341,Hungarian_step4,2020.2.3,Win32,60,,,,,,,,,,,,,,,,,left,0.662135,,,,,,,,0,5,5,1,1,,
,,,,,,,stim2/pa+45.wav,5f6916f985575a0f22ec8f69,2021-02-24_17h54.53.341,Hungarian_step4,2020.2.3,Win32,60,,,,,,,,,,,,,,,,,left,0.758115,,,,,,,,0,6,6,8,1,,
,,,,,,,stim2/pa+50.wav,5f6916f985575a0f22ec8f69,2021-02-24_17h54.53.341,Hungarian_step4,2020.2.3,Win32,60,,,,,,,,,,,,,,,,,right,0.580725,,,,,,,,0,7,7,9,1,,
,,,,,,,stim2/pa-20.wav,5f6916f985575a0f22ec8f69,2021-02-24_17h54.53.341,Hungarian_step4,2020.2.3,Win32,60,,,,,,,,,,,,,,,,,right,0.700375,,,,,,,,0,8,8,13,1,,
,,,,,,,stim2/pa-15.wav,5f6916f985575a0f22ec8f69,2021-02-24_17h54.53.341,Hungarian_step4,2020.2.3,Win32,60,,,,,,,,,,,,,,,,,right,0.388975,,,,,,,,0,9,9,12,1,,
,,,,,,,stim2/pa-10.wav,5f6916f985575a0f22ec8f69,2021-02-24_17h54.53.341,Hungarian_step4,2020.2.3,Win32,60,,,,,,,,,,,,,,,,,right,0.408855,,,,,,,,0,10,10,11,1,,
,,,,,,,stim2/pa+20.wav,5f6916f985575a0f22ec8f69,2021-02-24_17h54.53.341,Hungarian_step4,2020.2.3,Win32,60,,,,,,,,,,,,,,,,,left,0.548385,,,,,,,,0,11,11,3,1,,
,,,,,,,stim2/pa+05.wav,5f6916f985575a0f22ec8f69,2021-02-24_17h54.53.341,Hungarian_step4,2020.2.3,Win32,60,,,,,,,,,,,,,,,,,left,0.482565,,,,,,,,0,12,12,0,1,,
,,,,,,,stim2/pa-05.wav,5f6916f985575a0f22ec8f69,2021-02-24_17h54.53.341,Hungarian_step4,2020.2.3,Win32,60,,,,,,,,,,,,,,,,,right,0.41645,,,,,,,,0,13,13,10,1,,
,,,,,,,stim2/pa+25.wav,5f6916f985575a0f22ec8f69,2021-02-24_17h54.53.341,Hungarian_step4,2020.2.3,Win32,60,,,,,,,,,,,,,,,,,left,0.371955,,,,,,,,0,14,14,4,1,,
,,,,,,,stim2/pa-25.wav,5f6916f985575a0f22ec8f69,2021-02-24_17h54.53.341,Hungarian_step4,2020.2.3,Win32,60,,,,,,,,,,,,,,,,,right,0.382065,,,,,,,,0,15,15,14,1,,
,,,,,,,stim2/pa+15.wav,5f6916f985575a0f22ec8f69,2021-02-24_17h54.53.341,Hungarian_step4,2020.2.3,Win32,60,,,,,,,,,,,,,,,,,left,0.379245,,,,,,,,0,16,16,2,1,,
,,,,,,,stim2/pa+05.wav,5f6916f985575a0f22ec8f69,2021-02-24_17h54.53.341,Hungarian_step4,2020.2.3,Win32,60,,,,,,,,,,,,,,,,,right,0.38468,,,,,,,,1,0,17,0,1,,
,,,,,,,stim2/pa-15.wav,5f6916f985575a0f22ec8f69,2021-02-24_17h54.53.341,Hungarian_step4,2020.2.3,Win32,60,,,,,,,,,,,,,,,,,right,0.700615,,,,,,,,1,1,18,12,1,,
,,,,,,,stim2/pa+15.wav,5f6916f985575a0f22ec8f69,2021-02-24_17h54.53.341,Hungarian_step4,2020.2.3,Win32,60,,,,,,,,,,,,,,,,,left,0.42695,,,,,,,,1,2,19,2,1,,
,,,,,,,stim2/pa+30.wav,5f6916f985575a0f22ec8f69,2021-02-24_17h54.53.341,Hungarian_step4,2020.2.3,Win32,60,,,,,,,,,,,,,,,,,left,1.02478,,,,,,,,1,3,20,5,1,,
,,,,,,,stim2/pa+35.wav,5f6916f985575a0f22ec8f69,2021-02-24_17h54.53.341,Hungarian_step4,2020.2.3,Win32,60,,,,,,,,,,,,,,,,,right,0.617305,,,,,,,,1,4,21,6,1,,
,,,,,,,stim2/pa+10.wav,5f6916f985575a0f22ec8f69,2021-02-24_17h54.53.341,Hungarian_step4,2020.2.3,Win32,60,,,,,,,,,,,,,,,,,left,0.59675,,,,,,,,1,5,22,1,1,,
,,,,,,,stim2/pa+50.wav,5f6916f985575a0f22ec8f69,2021-02-24_17h54.53.341,Hungarian_step4,2020.2.3,Win32,60,,,,,,,,,,,,,,,,,right,0.57244,,,,,,,,1,6,23,9,1,,
,,,,,,,stim2/pa-10.wav,5f6916f985575a0f22ec8f69,2021-02-24_17h54.53.341,Hungarian_step4,2020.2.3,Win32,60,,,,,,,,,,,,,,,,,right,0.69269,,,,,,,,1,7,24,11,1,,
,,,,,,,stim2/pa+20.wav,5f6916f985575a0f22ec8f69,2021-02-24_17h54.53.341,Hungarian_step4,2020.2.3,Win32,60,,,,,,,,,,,,,,,,,left,0.478185,,,,,,,,1,8,25,3,1,,
,,,,,,,stim2/pa+40.wav,5f6916f985575a0f22ec8f69,2021-02-24_17h54.53.341,Hungarian_step4,2020.2.3,Win32,60,,,,,,,,,,,,,,,,,right,0.562685,,,,,,,,1,9,26,7,1,,
,,,,,,,stim2/pa-05.wav,5f6916f985575a0f22ec8f69,2021-02-24_17h54.53.341,Hungarian_step4,2020.2.3,Win32,60,,,,,,,,,,,,,,,,,right,0.623125,,,,,,,,1,10,27,10,1,,
,,,,,,,stim2/pa+45.wav,5f6916f985575a0f22ec8f69,2021-02-24_17h54.53.341,Hungarian_step4,2020.2.3,Win32,60,,,,,,,,,,,,,,,,,left,0.744175,,,,,,,,1,11,28,8,1,,
,,,,,,,stim2/pa-25.wav,5f6916f985575a0f22ec8f69,2021-02-24_17h54.53.341,Hungarian_step4,2020.2.3,Win32,60,,,,,,,,,,,,,,,,,right,0.46103,,,,,,,,1,12,29,14,1,,
,,,,,,,stim2/pa+25.wav,5f6916f985575a0f22ec8f69,2021-02-24_17h54.53.341,Hungarian_step4,2020.2.3,Win32,60,,,,,,,,,,,,,,,,,right,0.626565,,,,,,,,1,13,30,4,1,,
,,,,,,,stim2/pa-20.wav,5f6916f985575a0f22ec8f69,2021-02-24_17h54.53.341,Hungarian_step4,2020.2.3,Win32,60,,,,,,,,,,,,,,,,,right,0.57741,,,,,,,,1,14,31,13,1,,
,,,,,,,stim2/pa-30.wav,5f6916f985575a0f22ec8f69,2021-02-24_17h54.53.341,Hungarian_step4,2020.2.3,Win32,60,,,,,,,,,,,,,,,,,right,0.555575,,,,,,,,1,15,32,15,1,,
,,,,,,,stim2/pa-35.wav,5f6916f985575a0f22ec8f69,2021-02-24_17h54.53.341,Hungarian_step4,2020.2.3,Win32,60,,,,,,,,,,,,,,,,,right,0.52104,,,,,,,,1,16,33,16,1,,
,,,,,,,,5f6916f985575a0f22ec8f69,2021-02-24_17h54.53.341,Hungarian_step4,2020.2.3,Win32,60,,,,,,,,,,,,,,,,,,,,,,,,,,,,,,,space,2.27838
