stimuli,trials.thisRepN,trials.thisTrialN,trials.thisN,trials.thisIndex,trials_2.thisRepN,trials_2.thisTrialN,trials_2.thisN,trials_2.thisIndex,trials_3.thisRepN,trials_3.thisTrialN,trials_3.thisN,trials_3.thisIndex,instrText.started,instrText.stopped,cross_tr.started,cross_tr.stopped,sound_1.started,sound_1.stopped,resp.keys,resp.rt,resp.started,resp.stopped,ifri_p.started,ifri_p.stopped,ufri_practice.started,ufri_practice.stopped,gotIT.started,gotIT.stopped,gotResponse.keys,gotResponse.rt,gotResponse.started,gotResponse.stopped,cross_tr_2.started,cross_tr_2.stopped,sound_2.started,sound_2.stopped,resp_2.keys,resp_2.rt,resp_2.started,resp_2.stopped,ifri_p_2.started,ifri_p_2.stopped,ufri_practice_2.started,ufri_practice_2.stopped,instrText_2.started,instrText_2.stopped,cross_tr_3.started,cross_tr_3.stopped,sound_3.started,sound_3.stopped,resp_3.keys,resp_3.rt,resp_3.started,resp_3.stopped,pafri.started,pafri.stopped,bafri.started,bafri.stopped,thanksText.started,thanksText.stopped,session,participant,date,expName,psychopyVersion,frameRate,
stim/VC_01.wav,0,0,0,0,,,,,,,,,29.719406799878925,None,33.614679199876264,34.02456199983135,34.10815721992403,None,left,11.306918200105429,34.10797549993731,None,34.10797549993731,None,34.10797549993731,None,,,,,,,,,,,,,,,,,,,,,,,,,,,,,,,,,,,02,em01p,2020_Oct_09_1451,2_afc_span,2020.2.3,59.938455172172986,
stim/VC_11.wav,0,1,1,1,,,,,,,,,,,45.44727009977214,45.85729179996997,45.94060131986625,None,right,0.8617123998701572,45.940418399870396,None,45.940418399870396,None,45.940418399870396,None,,,,,,,,,,,,,,,,,,,,,,,,,,,,,,,,,,,02,em01p,2020_Oct_09_1451,2_afc_span,2020.2.3,59.938455172172986,
,,,,,,,,,,,,,,,,,,,,,,,,,,,47.65744169987738,48.65670999977738,space,2.843470700085163,47.907203499926254,None,,,,,,,,,,,,,,,,,,,,,,,,,,,,,02,em01p,2020_Oct_09_1451,2_afc_span,2020.2.3,59.938455172172986,
stim/VC_09.wav,,,,,0,0,0,8,,,,,,,,,,,,,,,,,,,,,,,,,50.78812779998407,51.19056909997016,51.2735230199527,None,right,1.2519335001707077,51.273573299869895,None,51.273573299869895,None,51.273573299869895,None,,,,,,,,,,,,,,,,,02,em01p,2020_Oct_09_1451,2_afc_span,2020.2.3,59.938455172172986,
stim/VC_05.wav,,,,,0,1,1,4,,,,,,,,,,,,,,,,,,,,,,,,,52.54906279989518,52.95707129989751,53.040340419951825,None,left,1.094853000016883,53.04020489985123,None,53.04020489985123,None,53.04020489985123,None,,,,,,,,,,,,,,,,,02,em01p,2020_Oct_09_1451,2_afc_span,2020.2.3,59.938455172172986,
stim/VC_06.wav,,,,,0,2,2,5,,,,,,,,,,,,,,,,,,,,,,,,,54.1619550997857,54.57351119979285,54.6569595198147,None,left,0.9729860001243651,54.65671689994633,None,54.65671689994633,None,54.65671689994633,None,,,,,,,,,,,,,,,,,02,em01p,2020_Oct_09_1451,2_afc_span,2020.2.3,59.938455172172986,
stim/VC_08.wav,,,,,0,3,3,7,,,,,,,,,,,,,,,,,,,,,,,,,55.66205169982277,56.073414999991655,56.15679821986705,None,right,0.9270780000369996,56.15684529999271,None,56.15684529999271,None,56.15684529999271,None,,,,,,,,,,,,,,,,,02,em01p,2020_Oct_09_1451,2_afc_span,2020.2.3,59.938455172172986,
stim/VC_11.wav,,,,,0,4,4,10,,,,,,,,,,,,,,,,,,,,,,,,,57.11151059996337,57.523202599957585,57.60658091991208,None,right,0.6706375000067055,57.606405599974096,None,57.606405599974096,None,57.606405599974096,None,,,,,,,,,,,,,,,,,02,em01p,2020_Oct_09_1451,2_afc_span,2020.2.3,59.938455172172986,
stim/VC_03.wav,,,,,0,5,5,2,,,,,,,,,,,,,,,,,,,,,,,,,58.31135129998438,58.72311169980094,58.80651801996864,None,left,0.5317152000498027,58.806248699780554,None,58.806248699780554,None,58.806248699780554,None,,,,,,,,,,,,,,,,,02,em01p,2020_Oct_09_1451,2_afc_span,2020.2.3,59.938455172172986,
stim/VC_07.wav,,,,,0,6,6,6,,,,,,,,,,,,,,,,,,,,,,,,,59.36148879979737,59.773310099961236,59.85662571978755,None,left,0.8615236999467015,59.85668489988893,None,59.85668489988893,None,59.85668489988893,None,,,,,,,,,,,,,,,,,02,em01p,2020_Oct_09_1451,2_afc_span,2020.2.3,59.938455172172986,
stim/VC_10.wav,,,,,0,7,7,9,,,,,,,,,,,,,,,,,,,,,,,,,60.74441529996693,61.15623169997707,61.2399294198025,None,right,0.6323472000658512,61.2396547999233,None,61.2396547999233,None,61.2396547999233,None,,,,,,,,,,,,,,,,,02,em01p,2020_Oct_09_1451,2_afc_span,2020.2.3,59.938455172172986,
stim/VC_01.wav,,,,,0,8,8,0,,,,,,,,,,,,,,,,,,,,,,,,,61.89710059994832,62.30629729991779,62.38984771990217,None,left,0.7384377999696881,62.38969679991715,None,62.38969679991715,None,62.38969679991715,None,,,,,,,,,,,,,,,,,02,em01p,2020_Oct_09_1451,2_afc_span,2020.2.3,59.938455172172986,
stim/VC_02.wav,,,,,0,9,9,1,,,,,,,,,,,,,,,,,,,,,,,,,63.16039069998078,63.5729475999251,63.65621331995353,None,left,0.5857626998331398,63.65646339999512,None,63.65646339999512,None,63.65646339999512,None,,,,,,,,,,,,,,,,,02,em01p,2020_Oct_09_1451,2_afc_span,2020.2.3,59.938455172172986,
stim/VC_04.wav,,,,,0,10,10,3,,,,,,,,,,,,,,,,,,,,,,,,,64.2772926997859,64.68946199980564,64.77272041989491,None,left,0.6191153998952359,64.77296859980561,None,64.77296859980561,None,64.77296859980561,None,,,,,,,,,,,,,,,,,02,em01p,2020_Oct_09_1451,2_afc_span,2020.2.3,59.938455172172986,
stim/VC_04.wav,,,,,1,0,11,3,,,,,,,,,,,,,,,,,,,,,,,,,65.42417739983648,65.83936329977587,65.92283241995611,None,left,0.7820089999586344,65.923659699969,None,65.923659699969,None,65.923659699969,None,,,,,,,,,,,,,,,,,02,em01p,2020_Oct_09_1451,2_afc_span,2020.2.3,59.938455172172986,
stim/VC_09.wav,,,,,1,1,12,8,,,,,,,,,,,,,,,,,,,,,,,,,66.72268789983355,67.12220719992183,67.22205471978523,None,right,0.6099663998465985,67.22272259998135,None,67.22272259998135,None,67.22272259998135,None,,,,,,,,,,,,,,,,,02,em01p,2020_Oct_09_1451,2_afc_span,2020.2.3,59.938455172172986,
stim/VC_02.wav,,,,,1,2,13,1,,,,,,,,,,,,,,,,,,,,,,,,,67.86037499993108,68.27192109986208,68.35527291996405,None,left,0.5160016999579966,68.35539359995164,None,68.35539359995164,None,68.35539359995164,None,,,,,,,,,,,,,,,,,02,em01p,2020_Oct_09_1451,2_afc_span,2020.2.3,59.938455172172986,
stim/VC_10.wav,,,,,1,3,14,9,,,,,,,,,,,,,,,,,,,,,,,,,68.89234899985604,69.30566799989901,69.38902601981536,None,right,0.6285173001233488,69.38908409979194,None,69.38908409979194,None,69.38908409979194,None,,,,,,,,,,,,,,,,,02,em01p,2020_Oct_09_1451,2_afc_span,2020.2.3,59.938455172172986,
stim/VC_03.wav,,,,,1,4,15,2,,,,,,,,,,,,,,,,,,,,,,,,,70.04202539986,70.45563109987415,70.53908301992342,None,left,0.5061334001366049,70.53886249987409,None,70.53886249987409,None,70.53886249987409,None,,,,,,,,,,,,,,,,,02,em01p,2020_Oct_09_1451,2_afc_span,2020.2.3,59.938455172172986,
stim/VC_01.wav,,,,,1,5,16,0,,,,,,,,,,,,,,,,,,,,,,,,,71.07460869988427,71.48902359977365,71.57232911987231,None,left,0.6420243000611663,71.57358169998042,None,71.57358169998042,None,71.57358169998042,None,,,,,,,,,,,,,,,,,02,em01p,2020_Oct_09_1451,2_afc_span,2020.2.3,59.938455172172986,
stim/VC_11.wav,,,,,1,6,17,10,,,,,,,,,,,,,,,,,,,,,,,,,72.24338269978762,72.65598859987222,72.73894431986847,None,right,0.5604495999868959,72.73894049995579,None,72.73894049995579,None,72.73894049995579,None,,,,,,,,,,,,,,,,,02,em01p,2020_Oct_09_1451,2_afc_span,2020.2.3,59.938455172172986,
stim/VC_06.wav,,,,,1,7,18,5,,,,,,,,,,,,,,,,,,,,,,,,,73.32656259997748,73.73866629996337,73.82200951976702,None,right,2.7235858000349253,73.82218549982645,None,73.82218549982645,None,73.82218549982645,None,,,,,,,,,,,,,,,,,02,em01p,2020_Oct_09_1451,2_afc_span,2020.2.3,59.938455172172986,
stim/VC_05.wav,,,,,1,8,19,4,,,,,,,,,,,,,,,,,,,,,,,,,76.57690149988048,76.98889189981855,77.07198121990078,None,left,0.8597162000369281,77.07181499991566,None,77.07181499991566,None,77.07181499991566,None,,,,,,,,,,,,,,,,,02,em01p,2020_Oct_09_1451,2_afc_span,2020.2.3,59.938455172172986,
stim/VC_07.wav,,,,,1,9,20,6,,,,,,,,,,,,,,,,,,,,,,,,,77.95837469981052,78.37197369989008,78.45522941984237,None,left,1.2667658999562263,78.45527529995888,None,78.45527529995888,None,78.45527529995888,None,,,,,,,,,,,,,,,,,02,em01p,2020_Oct_09_1451,2_afc_span,2020.2.3,59.938455172172986,
stim/VC_08.wav,,,,,1,10,21,7,,,,,,,,,,,,,,,,,,,,,,,,,79.74187929998152,80.15519219986163,80.2387709199451,None,right,0.6657888998743147,80.23853069986217,None,80.23853069986217,None,80.23853069986217,None,,,,,,,,,,,,,,,,,02,em01p,2020_Oct_09_1451,2_afc_span,2020.2.3,59.938455172172986,
stim/VC_02.wav,,,,,2,0,22,1,,,,,,,,,,,,,,,,,,,,,,,,,80.92337109986693,81.33808729983866,81.42162121981383,None,left,0.6392571001779288,81.42177329980768,None,81.42177329980768,None,81.42177329980768,None,,,,,,,,,,,,,,,,,02,em01p,2020_Oct_09_1451,2_afc_span,2020.2.3,59.938455172172986,
stim/VC_07.wav,,,,,2,1,23,6,,,,,,,,,,,,,,,,,,,,,,,,,82.09156339988112,82.5050440998748,82.58838851992041,None,right,0.527423599967733,82.58841539989226,None,82.58841539989226,None,82.58841539989226,None,,,,,,,,,,,,,,,,,02,em01p,2020_Oct_09_1451,2_afc_span,2020.2.3,59.938455172172986,
stim/VC_06.wav,,,,,2,2,24,5,,,,,,,,,,,,,,,,,,,,,,,,,83.14430639985949,83.55502619990148,83.63856561980211,None,right,0.8552274000830948,83.63858949998394,None,83.63858949998394,None,83.63858949998394,None,,,,,,,,,,,,,,,,,02,em01p,2020_Oct_09_1451,2_afc_span,2020.2.3,59.938455172172986,
stim/VC_11.wav,,,,,2,3,25,10,,,,,,,,,,,,,,,,,,,,,,,,,84.52398049994372,84.93818079982884,85.02127231992782,None,right,0.6266425000503659,85.02157609979622,None,85.02157609979622,None,85.02157609979622,None,,,,,,,,,,,,,,,,,02,em01p,2020_Oct_09_1451,2_afc_span,2020.2.3,59.938455172172986,
stim/VC_08.wav,,,,,2,4,26,7,,,,,,,,,,,,,,,,,,,,,,,,,85.67460269993171,86.08798869978637,86.17147771976889,None,right,0.6885345000773668,86.1716221999377,None,86.1716221999377,None,86.1716221999377,None,,,,,,,,,,,,,,,,,02,em01p,2020_Oct_09_1451,2_afc_span,2020.2.3,59.938455172172986,
stim/VC_03.wav,,,,,2,5,27,2,,,,,,,,,,,,,,,,,,,,,,,,,86.88995879981667,87.30468669999391,87.3880963198375,None,left,0.5702006998471916,87.38815079978667,None,87.38815079978667,None,87.38815079978667,None,,,,,,,,,,,,,,,,,02,em01p,2020_Oct_09_1451,2_afc_span,2020.2.3,59.938455172172986,
stim/VC_04.wav,,,,,2,6,28,3,,,,,,,,,,,,,,,,,,,,,,,,,87.99042159994133,88.40437529981136,88.48862231997774,None,left,0.7047248999588192,88.4881329999771,None,88.4881329999771,None,88.4881329999771,None,,,,,,,,,,,,,,,,,02,em01p,2020_Oct_09_1451,2_afc_span,2020.2.3,59.938455172172986,
stim/VC_05.wav,,,,,2,7,29,4,,,,,,,,,,,,,,,,,,,,,,,,,89.22223659977317,89.63817599997856,89.721235219948,None,left,0.634614699985832,89.72134279995225,None,89.72134279995225,None,89.72134279995225,None,,,,,,,,,,,,,,,,,02,em01p,2020_Oct_09_1451,2_afc_span,2020.2.3,59.938455172172986,
stim/VC_01.wav,,,,,2,8,30,0,,,,,,,,,,,,,,,,,,,,,,,,,90.37407409981824,90.78779969993047,90.87115301992745,None,left,0.6949132999870926,90.87098879995756,None,90.87098879995756,None,90.87098879995756,None,,,,,,,,,,,,,,,,,02,em01p,2020_Oct_09_1451,2_afc_span,2020.2.3,59.938455172172986,
stim/VC_10.wav,,,,,2,9,31,9,,,,,,,,,,,,,,,,,,,,,,,,,91.59283429989591,92.00414379988797,92.08764381995425,None,right,0.9214842999354005,92.08783759991638,None,92.08783759991638,None,92.08783759991638,None,,,,,,,,,,,,,,,,,02,em01p,2020_Oct_09_1451,2_afc_span,2020.2.3,59.938455172172986,
stim/VC_09.wav,,,,,2,10,32,8,,,,,,,,,,,,,,,,,,,,,,,,,93.04124959977344,93.45437469985336,93.53793111988344,None,right,0.8974176999181509,93.53742339997552,None,93.53742339997552,None,93.53742339997552,None,,,,,,,,,,,,,,,,,02,em01p,2020_Oct_09_1451,2_afc_span,2020.2.3,59.938455172172986,
stim/VC_05.wav,,,,,3,0,33,4,,,,,,,,,,,,,,,,,,,,,,,,,94.45771209988743,94.87069369992241,94.95448311986402,None,left,1.1842004999052733,94.95429229992442,None,94.95429229992442,None,94.95429229992442,None,,,,,,,,,,,,,,,,,02,em01p,2020_Oct_09_1451,2_afc_span,2020.2.3,59.938455172172986,
stim/VC_03.wav,,,,,3,1,34,2,,,,,,,,,,,,,,,,,,,,,,,,,96.15670749987476,96.5710257999599,96.65409121997655,None,right,0.9150082999840379,96.65422909986228,None,96.65422909986228,None,96.65422909986228,None,,,,,,,,,,,,,,,,,02,em01p,2020_Oct_09_1451,2_afc_span,2020.2.3,59.938455172172986,
stim/VC_04.wav,,,,,3,2,35,3,,,,,,,,,,,,,,,,,,,,,,,,,97.59151089983061,98.00381809985265,98.08737581977621,None,left,0.8692858000285923,98.08757349988446,None,98.08757349988446,None,98.08757349988446,None,,,,,,,,,,,,,,,,,02,em01p,2020_Oct_09_1451,2_afc_span,2020.2.3,59.938455172172986,
stim/VC_10.wav,,,,,3,3,36,9,,,,,,,,,,,,,,,,,,,,,,,,,98.98985529993661,99.40373489982449,99.48746801991948,None,left,1.957640599925071,99.48730109981261,None,99.48730109981261,None,99.48730109981261,None,,,,,,,,,,,,,,,,,02,em01p,2020_Oct_09_1451,2_afc_span,2020.2.3,59.938455172172986,
stim/VC_09.wav,,,,,3,4,37,8,,,,,,,,,,,,,,,,,,,,,,,,,101.47359299985692,101.88712789979763,101.97047061994672,None,right,0.7092569000087678,101.97094519995153,None,101.97094519995153,None,101.97094519995153,None,,,,,,,,,,,,,,,,,02,em01p,2020_Oct_09_1451,2_afc_span,2020.2.3,59.938455172172986,
stim/VC_08.wav,,,,,3,5,38,7,,,,,,,,,,,,,,,,,,,,,,,,,102.70788019988686,103.12046769983135,103.20386031977833,None,right,0.8774107999633998,103.20357129978947,None,103.20357129978947,None,103.20357129978947,None,,,,,,,,,,,,,,,,,02,em01p,2020_Oct_09_1451,2_afc_span,2020.2.3,59.938455172172986,
stim/VC_07.wav,,,,,3,6,39,6,,,,,,,,,,,,,,,,,,,,,,,,,104.10776729998179,104.5203546998091,104.60387971983292,None,right,0.7326417998410761,104.60421519982629,None,104.60421519982629,None,104.60421519982629,None,,,,,,,,,,,,,,,,,02,em01p,2020_Oct_09_1451,2_afc_span,2020.2.3,59.938455172172986,
stim/VC_11.wav,,,,,3,7,40,10,,,,,,,,,,,,,,,,,,,,,,,,,105.3585208998993,105.77051359997131,105.8538068198599,None,right,0.8073062999173999,105.85395799996331,None,105.85395799996331,None,105.85395799996331,None,,,,,,,,,,,,,,,,,02,em01p,2020_Oct_09_1451,2_afc_span,2020.2.3,59.938455172172986,
stim/VC_02.wav,,,,,3,8,41,1,,,,,,,,,,,,,,,,,,,,,,,,,106.69149839994498,107.1039822997991,107.18668651985936,None,left,0.5158448000438511,107.18694769986905,None,107.18694769986905,None,107.18694769986905,None,,,,,,,,,,,,,,,,,02,em01p,2020_Oct_09_1451,2_afc_span,2020.2.3,59.938455172172986,
stim/VC_01.wav,,,,,3,9,42,0,,,,,,,,,,,,,,,,,,,,,,,,,107.72449129982851,108.13642090000212,108.22035671989434,None,left,0.7572949000168592,108.22017219988629,None,108.22017219988629,None,108.22017219988629,None,,,,,,,,,,,,,,,,,02,em01p,2020_Oct_09_1451,2_afc_span,2020.2.3,59.938455172172986,
stim/VC_06.wav,,,,,3,10,43,5,,,,,,,,,,,,,,,,,,,,,,,,,109.0076861998532,109.42023839987814,109.50312281991356,None,left,0.9934888000134379,109.50316439988092,None,109.50316439988092,None,109.50316439988092,None,,,,,,,,,,,,,,,,,02,em01p,2020_Oct_09_1451,2_afc_span,2020.2.3,59.938455172172986,
stim/VC_09.wav,,,,,4,0,44,8,,,,,,,,,,,,,,,,,,,,,,,,,110.52393189980648,110.93663239991292,111.01988151981496,None,right,0.6604490999598056,111.02019459987059,None,111.02019459987059,None,111.02019459987059,None,,,,,,,,,,,,,,,,,02,em01p,2020_Oct_09_1451,2_afc_span,2020.2.3,59.938455172172986,
stim/VC_03.wav,,,,,4,1,45,2,,,,,,,,,,,,,,,,,,,,,,,,,111.70680829999037,112.11987329996191,112.20362271983177,None,left,0.7361608999781311,112.20349979982711,None,112.20349979982711,None,112.20349979982711,None,,,,,,,,,,,,,,,,,02,em01p,2020_Oct_09_1451,2_afc_span,2020.2.3,59.938455172172986,
stim/VC_08.wav,,,,,4,2,46,7,,,,,,,,,,,,,,,,,,,,,,,,,112.97383929998614,113.3863988998346,113.47004641997628,None,right,0.6240042999852449,113.46952179982327,None,113.46952179982327,None,113.46952179982327,None,,,,,,,,,,,,,,,,,02,em01p,2020_Oct_09_1451,2_afc_span,2020.2.3,59.938455172172986,
stim/VC_10.wav,,,,,4,3,47,9,,,,,,,,,,,,,,,,,,,,,,,,,114.12367169978097,114.53602999984287,114.61963881980628,None,right,0.7743096000049263,114.61984339985065,None,114.61984339985065,None,114.61984339985065,None,,,,,,,,,,,,,,,,,02,em01p,2020_Oct_09_1451,2_afc_span,2020.2.3,59.938455172172986,
stim/VC_02.wav,,,,,4,4,48,1,,,,,,,,,,,,,,,,,,,,,,,,,115.42291609989479,115.83626029989682,115.9200265198946,None,left,0.6919945999979973,115.91964549990371,None,115.91964549990371,None,115.91964549990371,None,,,,,,,,,,,,,,,,,02,em01p,2020_Oct_09_1451,2_afc_span,2020.2.3,59.938455172172986,
stim/VC_07.wav,,,,,4,5,49,6,,,,,,,,,,,,,,,,,,,,,,,,,116.6409519999288,117.05317509989254,117.13638671985828,None,right,0.9862045000772923,117.13583199982531,None,117.13583199982531,None,117.13583199982531,None,,,,,,,,,,,,,,,,,02,em01p,2020_Oct_09_1451,2_afc_span,2020.2.3,59.938455172172986,
stim/VC_01.wav,,,,,4,6,50,0,,,,,,,,,,,,,,,,,,,,,,,,,118.15546409995295,118.56975439982489,118.6528163199313,None,left,0.7293618000112474,118.6536194998771,None,118.6536194998771,None,118.6536194998771,None,,,,,,,,,,,,,,,,,02,em01p,2020_Oct_09_1451,2_afc_span,2020.2.3,59.938455172172986,
stim/VC_06.wav,,,,,4,7,51,5,,,,,,,,,,,,,,,,,,,,,,,,,119.40623769978993,119.8195784999989,119.90272091990337,None,left,0.7583720001857728,119.90301479981281,None,119.90301479981281,None,119.90301479981281,None,,,,,,,,,,,,,,,,,02,em01p,2020_Oct_09_1451,2_afc_span,2020.2.3,59.938455172172986,
stim/VC_04.wav,,,,,4,8,52,3,,,,,,,,,,,,,,,,,,,,,,,,,120.68937539984472,121.10299259983003,121.18607691987418,None,left,0.6303462998475879,121.18599179992452,None,121.18599179992452,None,121.18599179992452,None,,,,,,,,,,,,,,,,,02,em01p,2020_Oct_09_1451,2_afc_span,2020.2.3,59.938455172172986,
stim/VC_11.wav,,,,,4,9,53,10,,,,,,,,,,,,,,,,,,,,,,,,,121.83911999990232,122.25272039999254,122.33573711998761,None,right,0.6507333000190556,122.33605369995348,None,122.33605369995348,None,122.33605369995348,None,,,,,,,,,,,,,,,,,02,em01p,2020_Oct_09_1451,2_afc_span,2020.2.3,59.938455172172986,
stim/VC_05.wav,,,,,4,10,54,4,,,,,,,,,,,,,,,,,,,,,,,,,123.00686309998855,123.41912799980491,123.50252571990714,None,left,1.389582899864763,123.50280039990321,None,123.50280039990321,None,123.50280039990321,None,,,,,,,,,,,,,,,,,02,em01p,2020_Oct_09_1451,2_afc_span,2020.2.3,59.938455172172986,
stim2/pa+35.wav,,,,,,,,,0,0,0,6,,,,,,,,,,,,,,,,,,,,,,,,,,,,,,,,,125.12684509996325,None,127.7196293999441,128.1188846998848,128.20211101984606,None,left,2.038100300123915,128.20191089995205,None,128.20191089995205,None,128.20191089995205,None,,,02,em01p,2020_Oct_09_1451,2_afc_span,2020.2.3,59.938455172172986,
stim2/pa-20.wav,,,,,,,,,0,1,1,10,,,,,,,,,,,,,,,,,,,,,,,,,,,,,,,,,,,130.27871849993244,130.6852908998262,130.7686933198478,None,right,0.4979783999733627,130.76874509989284,None,130.76874509989284,None,130.76874509989284,None,,,02,em01p,2020_Oct_09_1451,2_afc_span,2020.2.3,59.938455172172986,
stim2/pa+05.wav,,,,,,,,,0,2,2,0,,,,,,,,,,,,,,,,,,,,,,,,,,,,,,,,,,,131.28958829981275,131.702355499845,131.78536441978068,None,left,0.7807658999226987,131.78536949981935,None,131.78536949981935,None,131.78536949981935,None,,,02,em01p,2020_Oct_09_1451,2_afc_span,2020.2.3,59.938455172172986,
stim2/pa-35.wav,,,,,,,,,0,3,3,13,,,,,,,,,,,,,,,,,,,,,,,,,,,,,,,,,,,132.58996129990555,133.00267579988576,133.08561181984842,None,right,0.5115205999463797,133.0853451997973,None,133.0853451997973,None,133.0853451997973,None,,,02,em01p,2020_Oct_09_1451,2_afc_span,2020.2.3,59.938455172172986,
stim2/pa-10.wav,,,,,,,,,0,4,4,8,,,,,,,,,,,,,,,,,,,,,,,,,,,,,,,,,,,133.62431210000068,134.03468909999356,134.11800531982445,None,right,0.9244983000680804,134.11806959984824,None,134.11806959984824,None,134.11806959984824,None,,,02,em01p,2020_Oct_09_1451,2_afc_span,2020.2.3,59.938455172172986,
stim2/pa-05.wav,,,,,,,,,0,5,5,7,,,,,,,,,,,,,,,,,,,,,,,,,,,,,,,,,,,135.07538419985212,135.48511519981548,135.56866701981053,None,right,0.9297005999833345,135.56874489993788,None,135.56874489993788,None,135.56874489993788,None,,,02,em01p,2020_Oct_09_1451,2_afc_span,2020.2.3,59.938455172172986,
stim2/pa+10.wav,,,,,,,,,0,6,6,1,,,,,,,,,,,,,,,,,,,,,,,,,,,,,,,,,,,136.52460069977678,136.93621079996228,137.01878611985595,None,right,1.0367649998515844,137.01866169995628,None,137.01866169995628,None,137.01866169995628,None,,,02,em01p,2020_Oct_09_1451,2_afc_span,2020.2.3,59.938455172172986,
stim2/pa-25.wav,,,,,,,,,0,7,7,11,,,,,,,,,,,,,,,,,,,,,,,,,,,,,,,,,,,138.08951839990914,138.50184709997848,138.58499241978862,None,right,0.9075201000086963,138.58495789999142,None,138.58495789999142,None,138.58495789999142,None,,,02,em01p,2020_Oct_09_1451,2_afc_span,2020.2.3,59.938455172172986,
stim2/pa+20.wav,,,,,,,,,0,8,8,3,,,,,,,,,,,,,,,,,,,,,,,,,,,,,,,,,,,139.5247434999328,139.9354686997831,140.01911031999626,None,left,0.5308854000177234,140.01822479977272,None,140.01822479977272,None,140.01822479977272,None,,,02,em01p,2020_Oct_09_1451,2_afc_span,2020.2.3,59.938455172172986,
stim2/pa+30.wav,,,,,,,,,0,9,9,5,,,,,,,,,,,,,,,,,,,,,,,,,,,,,,,,,,,140.57394479983486,140.98474109987728,141.06829241998494,None,left,0.5754180001094937,141.06954989978112,None,141.06954989978112,None,141.06954989978112,None,,,02,em01p,2020_Oct_09_1451,2_afc_span,2020.2.3,59.938455172172986,
stim2/pa+15.wav,,,,,,,,,0,10,10,2,,,,,,,,,,,,,,,,,,,,,,,,,,,,,,,,,,,141.67293879995123,142.08472319995053,142.16822641980835,None,left,0.5631858000997454,142.16830199980177,None,142.16830199980177,None,142.16830199980177,None,,,02,em01p,2020_Oct_09_1451,2_afc_span,2020.2.3,59.938455172172986,
stim2/pa-15.wav,,,,,,,,,0,11,11,9,,,,,,,,,,,,,,,,,,,,,,,,,,,,,,,,,,,142.75838129990734,143.16815069993027,143.25136191989296,None,right,0.7324914000928402,143.25166629999876,None,143.25166629999876,None,143.25166629999876,None,,,02,em01p,2020_Oct_09_1451,2_afc_span,2020.2.3,59.938455172172986,
stim2/pa+25.wav,,,,,,,,,0,12,12,4,,,,,,,,,,,,,,,,,,,,,,,,,,,,,,,,,,,144.00756169995293,144.4182113998104,144.50123051982374,None,left,0.5306769998278469,144.50157349999063,None,144.50157349999063,None,144.50157349999063,None,,,02,em01p,2020_Oct_09_1451,2_afc_span,2020.2.3,59.938455172172986,
stim2/pa-30.wav,,,,,,,,,0,13,13,12,,,,,,,,,,,,,,,,,,,,,,,,,,,,,,,,,,,145.05592609988526,145.46780039998703,145.55124131995254,None,right,0.6244338001124561,145.55134059977718,None,145.55134059977718,None,145.55134059977718,None,,,02,em01p,2020_Oct_09_1451,2_afc_span,2020.2.3,59.938455172172986,
stim2/pa+15.wav,,,,,,,,,1,0,14,2,,,,,,,,,,,,,,,,,,,,,,,,,,,,,,,,,,,146.20352349989116,146.617802699795,146.70120231979527,None,left,0.6621241001412272,146.70113079994917,None,146.70113079994917,None,146.70113079994917,None,,,02,em01p,2020_Oct_09_1451,2_afc_span,2020.2.3,59.938455172172986,
stim2/pa-20.wav,,,,,,,,,1,1,15,10,,,,,,,,,,,,,,,,,,,,,,,,,,,,,,,,,,,147.388416999951,147.80107939988375,147.8844211197924,None,right,0.5735206000972539,147.88441499997862,None,147.88441499997862,None,147.88441499997862,None,,,02,em01p,2020_Oct_09_1451,2_afc_span,2020.2.3,59.938455172172986,
stim2/pa-15.wav,,,,,,,,,1,2,16,9,,,,,,,,,,,,,,,,,,,,,,,,,,,,,,,,,,,148.48818919993937,148.90088639990427,148.98450011978858,None,right,0.6838696000631899,148.9843547998462,None,148.9843547998462,None,148.9843547998462,None,,,02,em01p,2020_Oct_09_1451,2_afc_span,2020.2.3,59.938455172172986,
stim2/pa-05.wav,,,,,,,,,1,3,17,7,,,,,,,,,,,,,,,,,,,,,,,,,,,,,,,,,,,149.68930459977128,150.10089689982124,150.18447211999447,None,right,0.6639560000039637,150.1843248999212,None,150.1843248999212,None,150.1843248999212,None,,,02,em01p,2020_Oct_09_1451,2_afc_span,2020.2.3,59.938455172172986,
stim2/pa+05.wav,,,,,,,,,1,4,18,0,,,,,,,,,,,,,,,,,,,,,,,,,,,,,,,,,,,150.87206609989516,151.28419569996186,151.36771001978778,None,right,0.6440727999433875,151.36755219986662,None,151.36755219986662,None,151.36755219986662,None,,,02,em01p,2020_Oct_09_1451,2_afc_span,2020.2.3,59.938455172172986,
stim2/pa-25.wav,,,,,,,,,1,5,19,11,,,,,,,,,,,,,,,,,,,,,,,,,,,,,,,,,,,152.0371046999935,152.45102699985728,152.53410821999424,None,right,0.687869899906218,152.53520759986714,None,152.53520759986714,None,152.53520759986714,None,,,02,em01p,2020_Oct_09_1451,2_afc_span,2020.2.3,59.938455172172986,
stim2/pa+25.wav,,,,,,,,,1,6,20,4,,,,,,,,,,,,,,,,,,,,,,,,,,,,,,,,,,,153.25295659992844,153.66725169983692,153.75071221995168,None,left,0.7261761999689043,153.75077969999984,None,153.75077969999984,None,153.75077969999984,None,,,02,em01p,2020_Oct_09_1451,2_afc_span,2020.2.3,59.938455172172986,
stim2/pa+35.wav,,,,,,,,,1,7,21,6,,,,,,,,,,,,,,,,,,,,,,,,,,,,,,,,,,,154.5036453998182,154.91723089991137,155.00060401982628,None,right,0.5716230000834912,155.0006413999945,None,155.0006413999945,None,155.0006413999945,None,,,02,em01p,2020_Oct_09_1451,2_afc_span,2020.2.3,59.938455172172986,
stim2/pa-10.wav,,,,,,,,,1,8,22,8,,,,,,,,,,,,,,,,,,,,,,,,,,,,,,,,,,,155.60270589985885,156.01724719977938,156.1006260198541,None,right,0.6365577999968082,156.10086369980127,None,156.10086369980127,None,156.10086369980127,None,,,02,em01p,2020_Oct_09_1451,2_afc_span,2020.2.3,59.938455172172986,
stim2/pa-35.wav,,,,,,,,,1,9,23,13,,,,,,,,,,,,,,,,,,,,,,,,,,,,,,,,,,,156.77004849980585,157.18383679981343,157.26756501998753,None,right,0.6409620000049472,157.26714529981837,None,157.26714529981837,None,157.26714529981837,None,,,02,em01p,2020_Oct_09_1451,2_afc_span,2020.2.3,59.938455172172986,
stim2/pa+20.wav,,,,,,,,,1,10,24,3,,,,,,,,,,,,,,,,,,,,,,,,,,,,,,,,,,,157.9363503998611,158.35071239992976,158.43403481980786,None,right,0.6530037999618798,158.43372939992696,None,158.43372939992696,None,158.43372939992696,None,,,02,em01p,2020_Oct_09_1451,2_afc_span,2020.2.3,59.938455172172986,
stim2/pa+10.wav,,,,,,,,,1,11,25,1,,,,,,,,,,,,,,,,,,,,,,,,,,,,,,,,,,,159.11672419984825,159.51698719989508,159.60051931985655,None,right,0.8633699999190867,159.60035359999165,None,159.60035359999165,None,159.60035359999165,None,,,02,em01p,2020_Oct_09_1451,2_afc_span,2020.2.3,59.938455172172986,
stim2/pa-30.wav,,,,,,,,,1,12,26,12,,,,,,,,,,,,,,,,,,,,,,,,,,,,,,,,,,,160.48706229985692,160.9002725998871,160.9838378199842,None,right,1.1887101999018341,160.98452999978326,None,160.98452999978326,None,160.98452999978326,None,,,02,em01p,2020_Oct_09_1451,2_afc_span,2020.2.3,59.938455172172986,
stim2/pa+30.wav,,,,,,,,,1,13,27,5,,,,,,,,,,,,,,,,,,,,,,,,,,,,,,,,,,,162.20204519992694,162.61683219997212,162.7004106199369,None,right,1.2422193000093102,162.70008709980175,None,162.70008709980175,None,162.70008709980175,None,,,02,em01p,2020_Oct_09_1451,2_afc_span,2020.2.3,59.938455172172986,
stim2/pa+15.wav,,,,,,,,,2,0,28,2,,,,,,,,,,,,,,,,,,,,,,,,,,,,,,,,,,,163.97337679984048,164.38351319986396,164.4667721198406,None,left,0.5315521999727935,164.46668079984374,None,164.46668079984374,None,164.46668079984374,None,,,02,em01p,2020_Oct_09_1451,2_afc_span,2020.2.3,59.938455172172986,
stim2/pa-15.wav,,,,,,,,,2,1,29,9,,,,,,,,,,,,,,,,,,,,,,,,,,,,,,,,,,,165.0224770999048,165.4334477998782,165.5167066199705,None,right,0.9017600999213755,165.51664449996315,None,165.51664449996315,None,165.51664449996315,None,,,02,em01p,2020_Oct_09_1451,2_afc_span,2020.2.3,59.938455172172986,
stim2/pa-35.wav,,,,,,,,,2,2,30,13,,,,,,,,,,,,,,,,,,,,,,,,,,,,,,,,,,,166.4493899999652,166.8533805999905,166.93268151986413,None,right,0.7608320999424905,166.93372939992696,None,166.93372939992696,None,166.93372939992696,None,,,02,em01p,2020_Oct_09_1451,2_afc_span,2020.2.3,59.938455172172986,
stim2/pa-05.wav,,,,,,,,,2,3,31,7,,,,,,,,,,,,,,,,,,,,,,,,,,,,,,,,,,,167.71607479988597,168.11661399994045,168.20014461977408,None,right,0.944370600162074,168.19987129978836,None,168.19987129978836,None,168.19987129978836,None,,,02,em01p,2020_Oct_09_1451,2_afc_span,2020.2.3,59.938455172172986,
stim2/pa-20.wav,,,,,,,,,2,4,32,10,,,,,,,,,,,,,,,,,,,,,,,,,,,,,,,,,,,169.17148339981213,169.5829861999955,169.66637521991507,None,right,0.835424599936232,169.6663684998639,None,169.6663684998639,None,169.6663684998639,None,,,02,em01p,2020_Oct_09_1451,2_afc_span,2020.2.3,59.938455172172986,
stim2/pa+35.wav,,,,,,,,,2,5,33,6,,,,,,,,,,,,,,,,,,,,,,,,,,,,,,,,,,,170.53586599999107,170.95000640000217,171.03297131983564,None,left,0.5352668000850827,171.03293109987862,None,171.03293109987862,None,171.03293109987862,None,,,02,em01p,2020_Oct_09_1451,2_afc_span,2020.2.3,59.938455172172986,
stim2/pa+20.wav,,,,,,,,,2,6,34,3,,,,,,,,,,,,,,,,,,,,,,,,,,,,,,,,,,,171.6019859998487,172.01610429980792,172.09958271994256,None,right,0.6824034000746906,172.09960999991745,None,172.09960999991745,None,172.09960999991745,None,,,02,em01p,2020_Oct_09_1451,2_afc_span,2020.2.3,59.938455172172986,
stim2/pa-10.wav,,,,,,,,,2,7,35,8,,,,,,,,,,,,,,,,,,,,,,,,,,,,,,,,,,,172.80127860000357,173.21606369991787,173.29985761977733,None,right,0.849063300061971,173.29951779986732,None,173.29951779986732,None,173.29951779986732,None,,,02,em01p,2020_Oct_09_1451,2_afc_span,2020.2.3,59.938455172172986,
stim2/pa+25.wav,,,,,,,,,2,8,36,4,,,,,,,,,,,,,,,,,,,,,,,,,,,,,,,,,,,174.169659699779,174.58291849982925,174.6662356197834,None,left,0.5346202000509948,174.66607749997638,None,174.66607749997638,None,174.66607749997638,None,,,02,em01p,2020_Oct_09_1451,2_afc_span,2020.2.3,59.938455172172986,
stim2/pa+30.wav,,,,,,,,,2,9,37,5,,,,,,,,,,,,,,,,,,,,,,,,,,,,,,,,,,,175.21563169988804,175.6160045999568,175.6996046198532,None,left,0.7424854999408126,175.6993821999058,None,175.6993821999058,None,175.6993821999058,None,,,02,em01p,2020_Oct_09_1451,2_afc_span,2020.2.3,59.938455172172986,
stim2/pa+05.wav,,,,,,,,,2,10,38,0,,,,,,,,,,,,,,,,,,,,,,,,,,,,,,,,,,,176.47054259991273,176.88243080000393,176.96589151988738,None,right,0.8199455998837948,176.96589059988037,None,176.96589059988037,None,176.96589059988037,None,,,02,em01p,2020_Oct_09_1451,2_afc_span,2020.2.3,59.938455172172986,
stim2/pa-30.wav,,,,,,,,,2,11,39,12,,,,,,,,,,,,,,,,,,,,,,,,,,,,,,,,,,,177.81926769996062,178.232287599938,178.3159476198256,None,right,0.9673062001820654,178.31577249988914,None,178.31577249988914,None,178.31577249988914,None,,,02,em01p,2020_Oct_09_1451,2_afc_span,2020.2.3,59.938455172172986,
stim2/pa+10.wav,,,,,,,,,2,12,40,1,,,,,,,,,,,,,,,,,,,,,,,,,,,,,,,,,,,179.30238329991698,179.71576359984465,179.79935721992516,None,left,0.7032914999872446,179.79907239996828,None,179.79907239996828,None,179.79907239996828,None,,,02,em01p,2020_Oct_09_1451,2_afc_span,2020.2.3,59.938455172172986,
stim2/pa-25.wav,,,,,,,,,2,13,41,11,,,,,,,,,,,,,,,,,,,,,,,,,,,,,,,,,,,180.53627759986557,180.94901909981854,181.03232861994766,None,right,0.5755392999853939,181.03229869995266,None,181.03229869995266,None,181.03229869995266,None,,,02,em01p,2020_Oct_09_1451,2_afc_span,2020.2.3,59.938455172172986,
stim2/pa+10.wav,,,,,,,,,3,0,42,1,,,,,,,,,,,,,,,,,,,,,,,,,,,,,,,,,,,181.63588259997778,182.04895599978045,182.13233461985365,None,left,0.5864365000743419,182.13237329991534,None,182.13237329991534,None,182.13237329991534,None,,,02,em01p,2020_Oct_09_1451,2_afc_span,2020.2.3,59.938455172172986,
stim2/pa+35.wav,,,,,,,,,3,1,43,6,,,,,,,,,,,,,,,,,,,,,,,,,,,,,,,,,,,182.75279969978146,183.16552209993824,183.24914381988347,None,right,0.5508602999616414,183.24901669984683,None,183.24901669984683,None,183.24901669984683,None,,,02,em01p,2020_Oct_09_1451,2_afc_span,2020.2.3,59.938455172172986,
stim2/pa+25.wav,,,,,,,,,3,2,44,4,,,,,,,,,,,,,,,,,,,,,,,,,,,,,,,,,,,183.83487209980376,184.24881149991415,184.33208871991374,None,left,0.7478877999819815,184.33219749992713,None,184.33219749992713,None,184.33219749992713,None,,,02,em01p,2020_Oct_09_1451,2_afc_span,2020.2.3,59.938455172172986,
stim2/pa+30.wav,,,,,,,,,3,3,45,5,,,,,,,,,,,,,,,,,,,,,,,,,,,,,,,,,,,185.10214089998044,185.5153739999514,185.59881271990017,None,left,1.3090953999198973,185.5988064999692,None,185.5988064999692,None,185.5988064999692,None,,,02,em01p,2020_Oct_09_1451,2_afc_span,2020.2.3,59.938455172172986,
stim2/pa-10.wav,,,,,,,,,3,4,46,8,,,,,,,,,,,,,,,,,,,,,,,,,,,,,,,,,,,186.9358792998828,187.34878229978494,187.43198111988605,None,right,0.8877254000399262,187.432043899782,None,187.432043899782,None,187.432043899782,None,,,02,em01p,2020_Oct_09_1451,2_afc_span,2020.2.3,59.938455172172986,
stim2/pa+20.wav,,,,,,,,,3,5,47,3,,,,,,,,,,,,,,,,,,,,,,,,,,,,,,,,,,,188.35251449979842,188.76524919993244,188.84862931990065,None,right,0.8537049998994917,188.84884469979443,None,188.84884469979443,None,188.84884469979443,None,,,02,em01p,2020_Oct_09_1451,2_afc_span,2020.2.3,59.938455172172986,
stim2/pa+05.wav,,,,,,,,,3,6,48,0,,,,,,,,,,,,,,,,,,,,,,,,,,,,,,,,,,,189.7365337999072,190.1485998998396,190.23178351982497,None,right,1.2317145999986678,190.23201029980555,None,190.23201029980555,None,190.23201029980555,None,,,02,em01p,2020_Oct_09_1451,2_afc_span,2020.2.3,59.938455172172986,
stim2/pa-35.wav,,,,,,,,,3,7,49,13,,,,,,,,,,,,,,,,,,,,,,,,,,,,,,,,,,,191.4850654997863,191.89830199978314,191.98172671985813,None,right,0.7200356000103056,191.98178469995037,None,191.98178469995037,None,191.98178469995037,None,,,02,em01p,2020_Oct_09_1451,2_afc_span,2020.2.3,59.938455172172986,
stim2/pa-15.wav,,,,,,,,,3,8,50,9,,,,,,,,,,,,,,,,,,,,,,,,,,,,,,,,,,,192.73583699995652,193.14853179990314,193.23156031998806,None,right,0.656448099995032,193.23187499982305,None,193.23187499982305,None,193.23187499982305,None,,,02,em01p,2020_Oct_09_1451,2_afc_span,2020.2.3,59.938455172172986,
stim2/pa+15.wav,,,,,,,,,3,9,51,2,,,,,,,,,,,,,,,,,,,,,,,,,,,,,,,,,,,193.9174100998789,194.33165109995753,194.4150318199303,None,right,0.6874205998610705,194.41490169987082,None,194.41490169987082,None,194.41490169987082,None,,,02,em01p,2020_Oct_09_1451,2_afc_span,2020.2.3,59.938455172172986,
stim2/pa-05.wav,,,,,,,,,3,10,52,7,,,,,,,,,,,,,,,,,,,,,,,,,,,,,,,,,,,195.13537179981358,195.54837729991414,195.63150311992504,None,right,0.6996038998477161,195.63182819983922,None,195.63182819983922,None,195.63182819983922,None,,,02,em01p,2020_Oct_09_1451,2_afc_span,2020.2.3,59.938455172172986,
stim2/pa-25.wav,,,,,,,,,3,11,53,11,,,,,,,,,,,,,,,,,,,,,,,,,,,,,,,,,,,196.35253649996594,196.76476689986885,196.84827031996102,None,right,0.7114887998905033,196.84806049987674,None,196.84806049987674,None,196.84806049987674,None,,,02,em01p,2020_Oct_09_1451,2_afc_span,2020.2.3,59.938455172172986,
stim2/pa-30.wav,,,,,,,,,3,12,54,12,,,,,,,,,,,,,,,,,,,,,,,,,,,,,,,,,,,197.5838344998192,197.998193499865,198.08138911994175,None,right,0.7232605998869985,198.08134629996493,None,198.08134629996493,None,198.08134629996493,None,,,02,em01p,2020_Oct_09_1451,2_afc_span,2020.2.3,59.938455172172986,
stim2/pa-20.wav,,,,,,,,,3,13,55,10,,,,,,,,,,,,,,,,,,,,,,,,,,,,,,,,,,,198.83478049980476,199.24813309987076,199.33116251984612,None,right,0.6091517000459135,199.3314384999685,None,199.3314384999685,None,199.3314384999685,None,,,02,em01p,2020_Oct_09_1451,2_afc_span,2020.2.3,59.938455172172986,
stim2/pa+30.wav,,,,,,,,,4,0,56,5,,,,,,,,,,,,,,,,,,,,,,,,,,,,,,,,,,,199.96834169980139,200.38135979999788,200.46453361990862,None,right,0.7255349999759346,200.46464249980636,None,200.46464249980636,None,200.46464249980636,None,,,02,em01p,2020_Oct_09_1451,2_afc_span,2020.2.3,59.938455172172986,
stim2/pa+15.wav,,,,,,,,,4,1,57,2,,,,,,,,,,,,,,,,,,,,,,,,,,,,,,,,,,,201.21735109994188,201.63100799988024,201.7145404199604,None,left,1.161256100051105,201.71444509993307,None,201.71444509993307,None,201.71444509993307,None,,,02,em01p,2020_Oct_09_1451,2_afc_span,2020.2.3,59.938455172172986,
stim2/pa+25.wav,,,,,,,,,4,2,58,4,,,,,,,,,,,,,,,,,,,,,,,,,,,,,,,,,,,202.90164379985072,203.31411589984782,203.39749721982517,None,left,0.8775168999563903,203.39749629981816,None,203.39749629981816,None,203.39749629981816,None,,,02,em01p,2020_Oct_09_1451,2_afc_span,2020.2.3,59.938455172172986,
stim2/pa-35.wav,,,,,,,,,4,3,59,13,,,,,,,,,,,,,,,,,,,,,,,,,,,,,,,,,,,204.2970252998639,204.69760279986076,204.7808762198314,None,right,0.6828114001546055,204.78102659992874,None,204.78102659992874,None,204.78102659992874,None,,,02,em01p,2020_Oct_09_1451,2_afc_span,2020.2.3,59.938455172172986,
stim2/pa+10.wav,,,,,,,,,4,4,60,1,,,,,,,,,,,,,,,,,,,,,,,,,,,,,,,,,,,205.48537459992804,205.89723219978623,205.9808334199246,None,right,1.2179227001033723,205.98113189986907,None,205.98113189986907,None,205.98113189986907,None,,,02,em01p,2020_Oct_09_1451,2_afc_span,2020.2.3,59.938455172172986,
stim2/pa-25.wav,,,,,,,,,4,5,61,11,,,,,,,,,,,,,,,,,,,,,,,,,,,,,,,,,,,207.21994059998542,207.63085529999807,207.7143039199058,None,right,0.8853815000038594,207.71399829979055,None,207.71399829979055,None,207.71399829979055,None,,,02,em01p,2020_Oct_09_1451,2_afc_span,2020.2.3,59.938455172172986,
stim2/pa+35.wav,,,,,,,,,4,6,62,6,,,,,,,,,,,,,,,,,,,,,,,,,,,,,,,,,,,208.63294559996575,209.0474658999592,209.13070281976835,None,right,1.2040998002048582,209.13088709977455,None,209.13088709977455,None,209.13088709977455,None,,,02,em01p,2020_Oct_09_1451,2_afc_span,2020.2.3,59.938455172172986,
stim2/pa-15.wav,,,,,,,,,4,7,63,9,,,,,,,,,,,,,,,,,,,,,,,,,,,,,,,,,,,210.36711389990523,210.78075079992414,210.86381211979315,None,right,0.768185299821198,210.86449239985086,None,210.86449239985086,None,210.86449239985086,None,,,02,em01p,2020_Oct_09_1451,2_afc_span,2020.2.3,59.938455172172986,
stim2/pa-20.wav,,,,,,,,,4,8,64,10,,,,,,,,,,,,,,,,,,,,,,,,,,,,,,,,,,,211.66707969992422,212.08068939996883,212.16402141992003,None,right,0.7354790000244975,212.16419329983182,None,212.16419329983182,None,212.16419329983182,None,,,02,em01p,2020_Oct_09_1451,2_afc_span,2020.2.3,59.938455172172986,
stim2/pa-30.wav,,,,,,,,,4,9,65,12,,,,,,,,,,,,,,,,,,,,,,,,,,,,,,,,,,,212.93388959998265,213.34722009999678,213.4304524197709,None,right,1.2045831999275833,213.43035179981962,None,213.43035179981962,None,213.43035179981962,None,,,02,em01p,2020_Oct_09_1451,2_afc_span,2020.2.3,59.938455172172986,
stim2/pa-10.wav,,,,,,,,,4,10,66,8,,,,,,,,,,,,,,,,,,,,,,,,,,,,,,,,,,,214.66706349980086,215.0802262998186,215.16366871991195,None,right,0.690732300048694,215.1637470999267,None,215.1637470999267,None,215.1637470999267,None,,,02,em01p,2020_Oct_09_1451,2_afc_span,2020.2.3,59.938455172172986,
stim2/pa+05.wav,,,,,,,,,4,11,67,0,,,,,,,,,,,,,,,,,,,,,,,,,,,,,,,,,,,215.88703789981082,216.2968712998554,216.38055691993796,None,right,0.7887343000620604,216.38016729988158,None,216.38016729988158,None,216.38016729988158,None,,,02,em01p,2020_Oct_09_1451,2_afc_span,2020.2.3,59.938455172172986,
stim2/pa-05.wav,,,,,,,,,4,12,68,7,,,,,,,,,,,,,,,,,,,,,,,,,,,,,,,,,,,217.2022131998092,217.61347579979338,217.69697591997684,None,right,1.204707199940458,217.69671069993638,None,217.69671069993638,None,217.69671069993638,None,,,02,em01p,2020_Oct_09_1451,2_afc_span,2020.2.3,59.938455172172986,
stim2/pa+20.wav,,,,,,,,,4,13,69,3,,,,,,,,,,,,,,,,,,,,,,,,,,,,,,,,,,,218.93246529996395,219.34692059992813,219.4301122199744,None,right,1.3347863000817597,219.42995729995891,None,219.42995729995891,None,219.42995729995891,None,,,02,em01p,2020_Oct_09_1451,2_afc_span,2020.2.3,59.938455172172986,
,,,,,,,,,,,,,,,,,,,,,,,,,,,,,,,,,,,,,,,,,,,,,,,,,,,,,,,,,,,221.04762849980034,None,,,,,,,
