stimuli,trials.thisRepN,trials.thisTrialN,trials.thisN,trials.thisIndex,trials_2.thisRepN,trials_2.thisTrialN,trials_2.thisN,trials_2.thisIndex,trials_3.thisRepN,trials_3.thisTrialN,trials_3.thisN,trials_3.thisIndex,instrText.started,instrText.stopped,cross_tr.started,cross_tr.stopped,sound_1.started,sound_1.stopped,resp.keys,resp.rt,resp.started,resp.stopped,eefree_p.started,eefree_p.stopped,offree_practice.started,offree_practice.stopped,gotIT.started,gotIT.stopped,gotResponse.keys,gotResponse.rt,gotResponse.started,gotResponse.stopped,cross_tr_2.started,cross_tr_2.stopped,sound_2.started,sound_2.stopped,resp_2.keys,resp_2.rt,resp_2.started,resp_2.stopped,eefree_p_2.started,eefree_p_2.stopped,offree_practice_2.started,offree_practice_2.stopped,instrText_2.started,instrText_2.stopped,cross_tr_3.started,cross_tr_3.stopped,sound_3.started,sound_3.stopped,resp_3.keys,resp_3.rt,resp_3.started,resp_3.stopped,pafri.started,pafri.stopped,bafri.started,bafri.stopped,thanksText.started,thanksText.stopped,session,participant,date,expName,psychopyVersion,frameRate,
stim/VC_01.wav,0,0,0,0,,,,,,,,,33.07219629990868,None,47.18331009987742,47.59637130005285,47.67982477990445,None,left,4.584893400082365,47.67959260009229,None,47.67959260009229,None,47.67959260009229,None,,,,,,,,,,,,,,,,,,,,,,,,,,,,,,,,,,,01,eme01p,2020_Oct_09_1333,2_afc_eng,2020.2.3,59.933713338575394,
stim/VC_11.wav,0,1,1,1,,,,,,,,,,,52.30353610008024,52.71276080003008,52.77927437999752,None,right,1.6970490999519825,52.779060299973935,None,52.779060299973935,None,52.779060299973935,None,,,,,,,,,,,,,,,,,,,,,,,,,,,,,,,,,,,01,eme01p,2020_Oct_09_1333,2_afc_eng,2020.2.3,59.933713338575394,
,,,,,,,,,,,,,,,,,,,,,,,,,,,55.31278720009141,56.312345299869776,space,4.524163800058886,55.562555599957705,None,,,,,,,,,,,,,,,,,,,,,,,,,,,,,01,eme01p,2020_Oct_09_1333,2_afc_eng,2020.2.3,59.933713338575394,
stim/VC_03.wav,,,,,0,0,0,2,,,,,,,,,,,,,,,,,,,,,,,,,60.12882569991052,60.52875699987635,60.612444779998626,None,left,5.006884700153023,60.61212900001556,None,60.61212900001556,None,60.61212900001556,None,,,,,,,,,,,,,,,,,01,eme01p,2020_Oct_09_1333,2_afc_eng,2020.2.3,59.933713338575394,
stim/VC_02.wav,,,,,0,1,1,1,,,,,,,,,,,,,,,,,,,,,,,,,65.65257959999144,66.06182059994899,66.1451232800493,None,left,1.2748702000826597,66.14537140005268,None,66.14537140005268,None,66.14537140005268,None,,,,,,,,,,,,,,,,,01,eme01p,2020_Oct_09_1333,2_afc_eng,2020.2.3,59.933713338575394,
stim/VC_10.wav,,,,,0,2,2,9,,,,,,,,,,,,,,,,,,,,,,,,,67.45010640006512,67.86155429994687,67.94499028001447,None,right,0.7277716000098735,67.94527880009264,None,67.94527880009264,None,67.94527880009264,None,,,,,,,,,,,,,,,,,01,eme01p,2020_Oct_09_1333,2_afc_eng,2020.2.3,59.933713338575394,
stim/VC_08.wav,,,,,0,3,3,7,,,,,,,,,,,,,,,,,,,,,,,,,68.69832059997134,69.11124860006385,69.19472357996274,None,right,0.6984206000342965,69.19497839990072,None,69.19497839990072,None,69.19497839990072,None,,,,,,,,,,,,,,,,,01,eme01p,2020_Oct_09_1333,2_afc_eng,2020.2.3,59.933713338575394,
stim/VC_04.wav,,,,,0,4,4,3,,,,,,,,,,,,,,,,,,,,,,,,,69.91089539998211,70.31180220004171,70.39451927987393,None,left,0.9073286999482661,70.39517889986746,None,70.39517889986746,None,70.39517889986746,None,,,,,,,,,,,,,,,,,01,eme01p,2020_Oct_09_1333,2_afc_eng,2020.2.3,59.933713338575394,
stim/VC_01.wav,,,,,0,5,5,0,,,,,,,,,,,,,,,,,,,,,,,,,71.33048069989309,71.74509519990534,71.82835387990345,None,left,0.662145100068301,71.82817639992572,None,71.82817639992572,None,71.82817639992572,None,,,,,,,,,,,,,,,,,01,eme01p,2020_Oct_09_1333,2_afc_eng,2020.2.3,59.933713338575394,
stim/VC_06.wav,,,,,0,6,6,5,,,,,,,,,,,,,,,,,,,,,,,,,72.5155764000956,72.9280344999861,73.01137708004099,None,right,0.621017900062725,73.01174320001155,None,73.01174320001155,None,73.01174320001155,None,,,,,,,,,,,,,,,,,01,eme01p,2020_Oct_09_1333,2_afc_eng,2020.2.3,59.933713338575394,
stim/VC_09.wav,,,,,0,7,7,8,,,,,,,,,,,,,,,,,,,,,,,,,73.66472480003722,74.07793090003543,74.16152087987867,None,right,0.7639065000694245,74.16140259988606,None,74.16140259988606,None,74.16140259988606,None,,,,,,,,,,,,,,,,,01,eme01p,2020_Oct_09_1333,2_afc_eng,2020.2.3,59.933713338575394,
stim/VC_05.wav,,,,,0,8,8,4,,,,,,,,,,,,,,,,,,,,,,,,,74.94727550004609,75.36135739996098,75.44458318005782,None,right,0.7623047998640686,75.44456880004145,None,75.44456880004145,None,75.44456880004145,None,,,,,,,,,,,,,,,,,01,eme01p,2020_Oct_09_1333,2_afc_eng,2020.2.3,59.933713338575394,
stim/VC_11.wav,,,,,0,9,9,10,,,,,,,,,,,,,,,,,,,,,,,,,76.23235729988664,76.64421649998985,76.72835397992749,None,right,0.8541860000696033,76.72789740003645,None,76.72789740003645,None,76.72789740003645,None,,,,,,,,,,,,,,,,,01,eme01p,2020_Oct_09_1333,2_afc_eng,2020.2.3,59.933713338575394,
stim/VC_07.wav,,,,,0,10,10,6,,,,,,,,,,,,,,,,,,,,,,,,,77.61391160008498,78.02776279998943,78.11129827999976,None,right,0.7161193999927491,78.11105170007795,None,78.11105170007795,None,78.11105170007795,None,,,,,,,,,,,,,,,,,01,eme01p,2020_Oct_09_1333,2_afc_eng,2020.2.3,59.933713338575394,
stim/VC_04.wav,,,,,1,0,11,3,,,,,,,,,,,,,,,,,,,,,,,,,78.84369129990228,79.24441779986955,79.32728307989892,None,left,0.7391843998339027,79.32768819993362,None,79.32768819993362,None,79.32768819993362,None,,,,,,,,,,,,,,,,,01,eme01p,2020_Oct_09_1333,2_afc_eng,2020.2.3,59.933713338575394,
stim/VC_01.wav,,,,,1,1,12,0,,,,,,,,,,,,,,,,,,,,,,,,,80.09661039989442,80.51061249990016,80.59382847992238,None,left,0.6048443999607116,80.59450850007124,None,80.59450850007124,None,80.59450850007124,None,,,,,,,,,,,,,,,,,01,eme01p,2020_Oct_09_1333,2_afc_eng,2020.2.3,59.933713338575394,
stim/VC_11.wav,,,,,1,2,13,10,,,,,,,,,,,,,,,,,,,,,,,,,81.22996979998425,81.64373839995824,81.72722937997897,None,right,0.6724904999136925,81.72738480009139,None,81.72738480009139,None,81.72738480009139,None,,,,,,,,,,,,,,,,,01,eme01p,2020_Oct_09_1333,2_afc_eng,2020.2.3,59.933713338575394,
stim/VC_07.wav,,,,,1,3,14,6,,,,,,,,,,,,,,,,,,,,,,,,,82.43081229995005,82.84459739993326,82.92762377990876,None,right,0.8009629000443965,82.92748870002106,None,82.92748870002106,None,82.92748870002106,None,,,,,,,,,,,,,,,,,01,eme01p,2020_Oct_09_1333,2_afc_eng,2020.2.3,59.933713338575394,
stim/VC_10.wav,,,,,1,4,15,9,,,,,,,,,,,,,,,,,,,,,,,,,83.7471231999807,84.16093900008127,84.24403728002217,None,right,0.6962254999671131,84.24431280000135,None,84.24431280000135,None,84.24431280000135,None,,,,,,,,,,,,,,,,,01,eme01p,2020_Oct_09_1333,2_afc_eng,2020.2.3,59.933713338575394,
stim/VC_05.wav,,,,,1,5,16,4,,,,,,,,,,,,,,,,,,,,,,,,,84.96562259993516,85.37685619993135,85.46023418002297,None,right,1.0333094999659806,85.46068789996207,None,85.46068789996207,None,85.46068789996207,None,,,,,,,,,,,,,,,,,01,eme01p,2020_Oct_09_1333,2_afc_eng,2020.2.3,59.933713338575394,
stim/VC_06.wav,,,,,1,6,17,5,,,,,,,,,,,,,,,,,,,,,,,,,86.51312029990368,86.92727730004117,87.01059347989504,None,right,0.8013750999234617,87.01058420003392,None,87.01058420003392,None,87.01058420003392,None,,,,,,,,,,,,,,,,,01,eme01p,2020_Oct_09_1333,2_afc_eng,2020.2.3,59.933713338575394,
stim/VC_09.wav,,,,,1,7,18,8,,,,,,,,,,,,,,,,,,,,,,,,,87.82920700008981,88.24337629997171,88.32843097990845,None,right,0.7702093999832869,88.32721320004202,None,88.32721320004202,None,88.32721320004202,None,,,,,,,,,,,,,,,,,01,eme01p,2020_Oct_09_1333,2_afc_eng,2020.2.3,59.933713338575394,
stim/VC_02.wav,,,,,1,8,19,1,,,,,,,,,,,,,,,,,,,,,,,,,89.12997410004027,89.54406529990956,89.62702317994554,None,left,0.5621144999749959,89.62712349998765,None,89.62712349998765,None,89.62712349998765,None,,,,,,,,,,,,,,,,,01,eme01p,2020_Oct_09_1333,2_afc_eng,2020.2.3,59.933713338575394,
stim/VC_03.wav,,,,,1,9,20,2,,,,,,,,,,,,,,,,,,,,,,,,,90.21320379991084,90.62705360003747,90.71051038003061,None,left,0.6029693998862058,90.71104989992455,None,90.71104989992455,None,90.71104989992455,None,,,,,,,,,,,,,,,,,01,eme01p,2020_Oct_09_1333,2_afc_eng,2020.2.3,59.933713338575394,
stim/VC_08.wav,,,,,1,10,21,7,,,,,,,,,,,,,,,,,,,,,,,,,91.34614620008506,91.76016289996915,91.84353377989028,None,right,0.7256102999672294,91.84428819990717,None,91.84428819990717,None,91.84428819990717,None,,,,,,,,,,,,,,,,,01,eme01p,2020_Oct_09_1333,2_afc_eng,2020.2.3,59.933713338575394,
stim/VC_01.wav,,,,,2,0,22,0,,,,,,,,,,,,,,,,,,,,,,,,,92.59770329995081,93.01031799986959,93.09360607985873,None,left,0.5794244001153857,93.0934923000168,None,93.0934923000168,None,93.0934923000168,None,,,,,,,,,,,,,,,,,01,eme01p,2020_Oct_09_1333,2_afc_eng,2020.2.3,59.933713338575394,
stim/VC_08.wav,,,,,2,1,23,7,,,,,,,,,,,,,,,,,,,,,,,,,93.6964417998679,94.11087329988368,94.19337257992011,None,right,0.6399064001161605,94.19367370009422,None,94.19367370009422,None,94.19367370009422,None,,,,,,,,,,,,,,,,,01,eme01p,2020_Oct_09_1333,2_afc_eng,2020.2.3,59.933713338575394,
stim/VC_02.wav,,,,,2,2,24,1,,,,,,,,,,,,,,,,,,,,,,,,,94.86197680002078,95.27714819996618,95.36009567992296,None,left,0.4608840001747012,95.3600318999961,None,95.3600318999961,None,95.3600318999961,None,,,,,,,,,,,,,,,,,01,eme01p,2020_Oct_09_1333,2_afc_eng,2020.2.3,59.933713338575394,
stim/VC_03.wav,,,,,2,3,25,2,,,,,,,,,,,,,,,,,,,,,,,,,95.84533359995112,96.26022910000756,96.34365207997617,None,left,0.6414745999500155,96.34342580009252,None,96.34342580009252,None,96.34342580009252,None,,,,,,,,,,,,,,,,,01,eme01p,2020_Oct_09_1333,2_afc_eng,2020.2.3,59.933713338575394,
stim/VC_10.wav,,,,,2,4,26,9,,,,,,,,,,,,,,,,,,,,,,,,,97.01350070000626,97.42679900000803,97.51008817988914,None,right,0.6047753000166267,97.50995739991777,None,97.50995739991777,None,97.50995739991777,None,,,,,,,,,,,,,,,,,01,eme01p,2020_Oct_09_1333,2_afc_eng,2020.2.3,59.933713338575394,
stim/VC_06.wav,,,,,2,5,27,5,,,,,,,,,,,,,,,,,,,,,,,,,98.14421349996701,98.55964919994585,98.64275858008769,None,right,0.6155826000031084,98.64254259993322,None,98.64254259993322,None,98.64254259993322,None,,,,,,,,,,,,,,,,,01,eme01p,2020_Oct_09_1333,2_afc_eng,2020.2.3,59.933713338575394,
stim/VC_09.wav,,,,,2,6,28,8,,,,,,,,,,,,,,,,,,,,,,,,,99.27991120005026,99.69324679998681,99.77668107992504,None,right,0.6436819999944419,99.777439000085,None,99.777439000085,None,99.777439000085,None,,,,,,,,,,,,,,,,,01,eme01p,2020_Oct_09_1333,2_afc_eng,2020.2.3,59.933713338575394,
stim/VC_07.wav,,,,,2,7,29,6,,,,,,,,,,,,,,,,,,,,,,,,,100.4426048998721,100.84305080003105,100.92647197998595,None,right,0.6724357001949102,100.9267021000851,None,100.9267021000851,None,100.9267021000851,None,,,,,,,,,,,,,,,,,01,eme01p,2020_Oct_09_1333,2_afc_eng,2020.2.3,59.933713338575394,
stim/VC_04.wav,,,,,2,8,30,3,,,,,,,,,,,,,,,,,,,,,,,,,101.63030779990368,102.04297890001908,102.12621857987251,None,left,0.8032637999858707,102.12681449996307,None,102.12681449996307,None,102.12681449996307,None,,,,,,,,,,,,,,,,,01,eme01p,2020_Oct_09_1333,2_afc_eng,2020.2.3,59.933713338575394,
stim/VC_11.wav,,,,,2,9,31,10,,,,,,,,,,,,,,,,,,,,,,,,,102.9631191000808,103.37618910009041,103.46028757996392,None,right,0.6788439999800175,103.45960450009443,None,103.45960450009443,None,103.45960450009443,None,,,,,,,,,,,,,,,,,01,eme01p,2020_Oct_09_1333,2_afc_eng,2020.2.3,59.933713338575394,
stim/VC_05.wav,,,,,2,10,32,4,,,,,,,,,,,,,,,,,,,,,,,,,104.16378029994667,104.57710890006274,104.66027058002074,None,right,0.7537185999099165,104.65948299993761,None,104.65948299993761,None,104.65948299993761,None,,,,,,,,,,,,,,,,,01,eme01p,2020_Oct_09_1333,2_afc_eng,2020.2.3,59.933713338575394,
stim/VC_01.wav,,,,,3,0,33,0,,,,,,,,,,,,,,,,,,,,,,,,,105.4446111000143,105.85963850002736,105.94312937993091,None,left,0.7239115999545902,105.94299799995497,None,105.94299799995497,None,105.94299799995497,None,,,,,,,,,,,,,,,,,01,eme01p,2020_Oct_09_1333,2_afc_eng,2020.2.3,59.933713338575394,
stim/VC_07.wav,,,,,3,1,34,6,,,,,,,,,,,,,,,,,,,,,,,,,106.69637600006536,107.10929819988087,107.19365237995517,None,right,0.8624158999882638,107.19290859997272,None,107.19290859997272,None,107.19290859997272,None,,,,,,,,,,,,,,,,,01,eme01p,2020_Oct_09_1333,2_afc_eng,2020.2.3,59.933713338575394,
stim/VC_09.wav,,,,,3,2,35,8,,,,,,,,,,,,,,,,,,,,,,,,,108.07929120003246,108.49252870003693,108.57582427996677,None,right,0.7453894999343902,108.57660789997317,None,108.57660789997317,None,108.57660789997317,None,,,,,,,,,,,,,,,,,01,eme01p,2020_Oct_09_1333,2_afc_eng,2020.2.3,59.933713338575394,
stim/VC_08.wav,,,,,3,3,36,7,,,,,,,,,,,,,,,,,,,,,,,,,109.34663779987022,109.75913470005617,109.84273457985837,None,right,0.6861596000380814,109.84442689991556,None,109.84442689991556,None,109.84442689991556,None,,,,,,,,,,,,,,,,,01,eme01p,2020_Oct_09_1333,2_afc_eng,2020.2.3,59.933713338575394,
stim/VC_05.wav,,,,,3,4,37,4,,,,,,,,,,,,,,,,,,,,,,,,,110.56115640001372,110.97706450009719,111.05907917993609,None,right,1.0340791998896748,111.05905369995162,None,111.05905369995162,None,111.05905369995162,None,,,,,,,,,,,,,,,,,01,eme01p,2020_Oct_09_1333,2_afc_eng,2020.2.3,59.933713338575394,
stim/VC_04.wav,,,,,3,5,38,3,,,,,,,,,,,,,,,,,,,,,,,,,112.1107856000308,112.52580929989927,112.60912687999662,None,left,1.3549881998915225,112.6089697999414,None,112.6089697999414,None,112.6089697999414,None,,,,,,,,,,,,,,,,,01,eme01p,2020_Oct_09_1333,2_afc_eng,2020.2.3,59.933713338575394,
stim/VC_02.wav,,,,,3,6,39,1,,,,,,,,,,,,,,,,,,,,,,,,,113.9961107999552,114.4089347999543,114.492390680057,None,left,0.6655256000813097,114.49225299991667,None,114.49225299991667,None,114.49225299991667,None,,,,,,,,,,,,,,,,,01,eme01p,2020_Oct_09_1333,2_afc_eng,2020.2.3,59.933713338575394,
stim/VC_06.wav,,,,,3,7,40,5,,,,,,,,,,,,,,,,,,,,,,,,,115.17777720000595,115.59211690002121,115.67542908007745,None,right,0.7172476998530328,115.67566190008074,None,115.67566190008074,None,115.67566190008074,None,,,,,,,,,,,,,,,,,01,eme01p,2020_Oct_09_1333,2_afc_eng,2020.2.3,59.933713338575394,
stim/VC_11.wav,,,,,3,8,41,10,,,,,,,,,,,,,,,,,,,,,,,,,116.4119835998863,116.82552030007355,116.90885088003706,None,right,0.7780313000548631,116.90874139987864,None,116.90874139987864,None,116.90874139987864,None,,,,,,,,,,,,,,,,,01,eme01p,2020_Oct_09_1333,2_afc_eng,2020.2.3,59.933713338575394,
stim/VC_10.wav,,,,,3,9,42,9,,,,,,,,,,,,,,,,,,,,,,,,,117.71122139994986,118.12526579992846,118.20862957991194,None,right,0.7856129999272525,118.2087161000818,None,118.2087161000818,None,118.2087161000818,None,,,,,,,,,,,,,,,,,01,eme01p,2020_Oct_09_1333,2_afc_eng,2020.2.3,59.933713338575394,
stim/VC_03.wav,,,,,3,10,43,2,,,,,,,,,,,,,,,,,,,,,,,,,119.02768709999509,119.44188699987717,119.52525657990482,None,left,0.6622091999743134,119.52527139987797,None,119.52527139987797,None,119.52527139987797,None,,,,,,,,,,,,,,,,,01,eme01p,2020_Oct_09_1333,2_afc_eng,2020.2.3,59.933713338575394,
stim/VC_10.wav,,,,,4,0,44,9,,,,,,,,,,,,,,,,,,,,,,,,,120.21240269998088,120.62514739995822,120.70848838000093,None,right,0.7626745000015944,120.70853969990276,None,120.70853969990276,None,120.70853969990276,None,,,,,,,,,,,,,,,,,01,eme01p,2020_Oct_09_1333,2_afc_eng,2020.2.3,59.933713338575394,
stim/VC_01.wav,,,,,4,1,45,0,,,,,,,,,,,,,,,,,,,,,,,,,121.49633909994736,121.90836809994653,121.9930679799756,None,left,0.6869711999315768,121.99194850004278,None,121.99194850004278,None,121.99194850004278,None,,,,,,,,,,,,,,,,,01,eme01p,2020_Oct_09_1333,2_afc_eng,2020.2.3,59.933713338575394,
stim/VC_11.wav,,,,,4,2,46,10,,,,,,,,,,,,,,,,,,,,,,,,,122.71024290006608,123.12530419998802,123.20832277990412,None,right,0.6705602000001818,123.20830759988166,None,123.20830759988166,None,123.20830759988166,None,,,,,,,,,,,,,,,,,01,eme01p,2020_Oct_09_1333,2_afc_eng,2020.2.3,59.933713338575394,
stim/VC_04.wav,,,,,4,3,47,3,,,,,,,,,,,,,,,,,,,,,,,,,123.91089070006274,124.32517710002139,124.40830767985899,None,left,0.6926470000762492,124.40827100002207,None,124.40827100002207,None,124.40827100002207,None,,,,,,,,,,,,,,,,,01,eme01p,2020_Oct_09_1333,2_afc_eng,2020.2.3,59.933713338575394,
stim/VC_09.wav,,,,,4,4,48,8,,,,,,,,,,,,,,,,,,,,,,,,,125.12850239989348,125.54153360007331,125.62481988004875,None,right,0.6328577999956906,125.6248454998713,None,125.6248454998713,None,125.6248454998713,None,,,,,,,,,,,,,,,,,01,eme01p,2020_Oct_09_1333,2_afc_eng,2020.2.3,59.933713338575394,
stim/VC_08.wav,,,,,4,5,49,7,,,,,,,,,,,,,,,,,,,,,,,,,126.27918149996549,126.69141609990038,126.77478207990062,None,right,0.7027183999307454,126.77480929996818,None,126.77480929996818,None,126.77480929996818,None,,,,,,,,,,,,,,,,,01,eme01p,2020_Oct_09_1333,2_afc_eng,2020.2.3,59.933713338575394,
stim/VC_03.wav,,,,,4,6,50,2,,,,,,,,,,,,,,,,,,,,,,,,,127.51053999993019,127.92467219987884,128.0080225799931,None,left,0.6382285999134183,128.0079922999721,None,128.0079922999721,None,128.0079922999721,None,,,,,,,,,,,,,,,,,01,eme01p,2020_Oct_09_1333,2_afc_eng,2020.2.3,59.933713338575394,
stim/VC_06.wav,,,,,4,7,51,5,,,,,,,,,,,,,,,,,,,,,,,,,128.67732829996385,129.0912490999326,129.17456957993562,None,right,0.8557305000722408,129.1747351998929,None,129.1747351998929,None,129.1747351998929,None,,,,,,,,,,,,,,,,,01,eme01p,2020_Oct_09_1333,2_afc_eng,2020.2.3,59.933713338575394,
stim/VC_07.wav,,,,,4,8,52,6,,,,,,,,,,,,,,,,,,,,,,,,,130.06055009993725,130.47480460000224,130.55789807990658,None,right,0.8598941001109779,130.55782980006188,None,130.55782980006188,None,130.55782980006188,None,,,,,,,,,,,,,,,,,01,eme01p,2020_Oct_09_1333,2_afc_eng,2020.2.3,59.933713338575394,
stim/VC_05.wav,,,,,4,9,53,4,,,,,,,,,,,,,,,,,,,,,,,,,131.444612900028,131.85778569988906,131.94128458008635,None,left,0.9104357999749482,131.94139469997026,None,131.94139469997026,None,131.94139469997026,None,,,,,,,,,,,,,,,,,01,eme01p,2020_Oct_09_1333,2_afc_eng,2020.2.3,59.933713338575394,
stim/VC_02.wav,,,,,4,10,54,1,,,,,,,,,,,,,,,,,,,,,,,,,132.87761930003762,133.2913031000644,133.37422478005755,None,left,0.7762643001042306,133.37429050006904,None,133.37429050006904,None,133.37429050006904,None,,,,,,,,,,,,,,,,,01,eme01p,2020_Oct_09_1333,2_afc_eng,2020.2.3,59.933713338575394,
stim2/pa-10.wav,,,,,,,,,0,0,0,8,,,,,,,,,,,,,,,,,,,,,,,,,,,,,,,,,134.38352199993096,None,139.2884752000682,139.69061030005105,139.77398718001785,None,left,2.721164499875158,139.77406419999897,None,139.77406419999897,None,139.77406419999897,None,,,01,eme01p,2020_Oct_09_1333,2_afc_eng,2020.2.3,59.933713338575394,
stim2/pa-15.wav,,,,,,,,,0,1,1,9,,,,,,,,,,,,,,,,,,,,,,,,,,,,,,,,,,,142.5312133000698,142.9404710000381,143.00705587996634,None,right,1.0132182000670582,143.00720870005898,None,143.00720870005898,None,143.00720870005898,None,,,01,eme01p,2020_Oct_09_1333,2_afc_eng,2020.2.3,59.933713338575394,
stim2/pa-20.wav,,,,,,,,,0,2,2,10,,,,,,,,,,,,,,,,,,,,,,,,,,,,,,,,,,,144.0438792000059,144.45704589993693,144.54038467996287,None,right,0.8053049999289215,144.5402969000861,None,144.5402969000861,None,144.5402969000861,None,,,01,eme01p,2020_Oct_09_1333,2_afc_eng,2020.2.3,59.933713338575394,
stim2/pa-05.wav,,,,,,,,,0,3,3,7,,,,,,,,,,,,,,,,,,,,,,,,,,,,,,,,,,,145.3779631999787,145.79050090000965,145.87360347986686,None,right,0.7120020999573171,145.87392250006087,None,145.87392250006087,None,145.87392250006087,None,,,01,eme01p,2020_Oct_09_1333,2_afc_eng,2020.2.3,59.933713338575394,
stim2/pa+25.wav,,,,,,,,,0,4,4,4,,,,,,,,,,,,,,,,,,,,,,,,,,,,,,,,,,,146.61042289994657,147.0237517999485,147.1071321800584,None,left,0.8469638000242412,147.1077060000971,None,147.1077060000971,None,147.1077060000971,None,,,01,eme01p,2020_Oct_09_1333,2_afc_eng,2020.2.3,59.933713338575394,
stim2/pa+35.wav,,,,,,,,,0,5,5,6,,,,,,,,,,,,,,,,,,,,,,,,,,,,,,,,,,,147.97750489995815,148.39012650004588,148.47345737989525,None,right,0.8747697998769581,148.4737080000341,None,148.4737080000341,None,148.4737080000341,None,,,01,eme01p,2020_Oct_09_1333,2_afc_eng,2020.2.3,59.933713338575394,
stim2/pa-30.wav,,,,,,,,,0,6,6,12,,,,,,,,,,,,,,,,,,,,,,,,,,,,,,,,,,,149.3782104998827,149.78999889991246,149.8736776799662,None,right,0.8458294000010937,149.8735654000193,None,149.8735654000193,None,149.8735654000193,None,,,01,eme01p,2020_Oct_09_1333,2_afc_eng,2020.2.3,59.933713338575394,
stim2/pa+10.wav,,,,,,,,,0,7,7,1,,,,,,,,,,,,,,,,,,,,,,,,,,,,,,,,,,,150.74429850000888,151.15659829997458,151.239907880011,None,left,1.3907083000522107,151.24000009987503,None,151.24000009987503,None,151.24000009987503,None,,,01,eme01p,2020_Oct_09_1333,2_afc_eng,2020.2.3,59.933713338575394,
stim2/pa+15.wav,,,,,,,,,0,8,8,2,,,,,,,,,,,,,,,,,,,,,,,,,,,,,,,,,,,152.6606566000264,153.07322950009257,153.15646537991705,None,left,0.7792062999214977,153.15776890004054,None,153.15776890004054,None,153.15776890004054,None,,,01,eme01p,2020_Oct_09_1333,2_afc_eng,2020.2.3,59.933713338575394,
stim2/pa+20.wav,,,,,,,,,0,9,9,3,,,,,,,,,,,,,,,,,,,,,,,,,,,,,,,,,,,153.95985640003346,154.37316419999115,154.45643308006692,None,left,0.8410803999286145,154.45706290006638,None,154.45706290006638,None,154.45706290006638,None,,,01,eme01p,2020_Oct_09_1333,2_afc_eng,2020.2.3,59.933713338575394,
stim2/pa-25.wav,,,,,,,,,0,10,10,11,,,,,,,,,,,,,,,,,,,,,,,,,,,,,,,,,,,155.3265813998878,155.73959459993057,155.8231294799363,None,right,0.6970882997848094,155.82321970001794,None,155.82321970001794,None,155.82321970001794,None,,,01,eme01p,2020_Oct_09_1333,2_afc_eng,2020.2.3,59.933713338575394,
stim2/pa-35.wav,,,,,,,,,0,11,11,13,,,,,,,,,,,,,,,,,,,,,,,,,,,,,,,,,,,156.54461820004508,156.95660699997097,157.03961727994027,None,right,0.6459867998491973,157.0398621999193,None,157.0398621999193,None,157.0398621999193,None,,,01,eme01p,2020_Oct_09_1333,2_afc_eng,2020.2.3,59.933713338575394,
stim2/pa+30.wav,,,,,,,,,0,12,12,5,,,,,,,,,,,,,,,,,,,,,,,,,,,,,,,,,,,157.71150030009449,158.1228372999467,158.20615788006688,None,left,0.6336375998798758,158.20671260007657,None,158.20671260007657,None,158.20671260007657,None,,,01,eme01p,2020_Oct_09_1333,2_afc_eng,2020.2.3,59.933713338575394,
stim2/pa+05.wav,,,,,,,,,0,13,13,0,,,,,,,,,,,,,,,,,,,,,,,,,,,,,,,,,,,158.8598132999614,159.27286639995873,159.35606198005843,None,right,0.5548310000449419,159.3569290000014,None,159.3569290000014,None,159.3569290000014,None,,,01,eme01p,2020_Oct_09_1333,2_afc_eng,2020.2.3,59.933713338575394,
stim2/pa+05.wav,,,,,,,,,1,0,14,0,,,,,,,,,,,,,,,,,,,,,,,,,,,,,,,,,,,159.94337120000273,160.35601760004647,160.43945508000905,None,right,0.7879202000331134,160.43945549987257,None,160.43945549987257,None,160.43945549987257,None,,,01,eme01p,2020_Oct_09_1333,2_afc_eng,2020.2.3,59.933713338575394,
stim2/pa+30.wav,,,,,,,,,1,1,15,5,,,,,,,,,,,,,,,,,,,,,,,,,,,,,,,,,,,161.25822909991257,161.67261840007268,161.75600317998322,None,left,0.5764806000515819,161.75639820005745,None,161.75639820005745,None,161.75639820005745,None,,,01,eme01p,2020_Oct_09_1333,2_afc_eng,2020.2.3,59.933713338575394,
stim2/pa+35.wav,,,,,,,,,1,2,16,6,,,,,,,,,,,,,,,,,,,,,,,,,,,,,,,,,,,162.36001130007207,162.77262030006386,162.8558539798716,None,right,0.5717818001285195,162.85623760009184,None,162.85623760009184,None,162.85623760009184,None,,,01,eme01p,2020_Oct_09_1333,2_afc_eng,2020.2.3,59.933713338575394,
stim2/pa-20.wav,,,,,,,,,1,3,17,10,,,,,,,,,,,,,,,,,,,,,,,,,,,,,,,,,,,163.4588977000676,163.87265989999287,163.95586527993436,None,right,0.8315210998989642,163.9565856999252,None,163.9565856999252,None,163.9565856999252,None,,,01,eme01p,2020_Oct_09_1333,2_afc_eng,2020.2.3,59.933713338575394,
stim2/pa-35.wav,,,,,,,,,1,4,18,13,,,,,,,,,,,,,,,,,,,,,,,,,,,,,,,,,,,164.8098649000749,165.22280919994228,165.305663180002,None,right,0.8479772000573575,165.3066370000597,None,165.3066370000597,None,165.3066370000597,None,,,01,eme01p,2020_Oct_09_1333,2_afc_eng,2020.2.3,59.933713338575394,
stim2/pa+20.wav,,,,,,,,,1,5,19,3,,,,,,,,,,,,,,,,,,,,,,,,,,,,,,,,,,,166.17678089998662,166.58894679998048,166.67255308006423,None,left,0.6673419000580907,166.67236309987493,None,166.67236309987493,None,166.67236309987493,None,,,01,eme01p,2020_Oct_09_1333,2_afc_eng,2020.2.3,59.933713338575394,
stim2/pa-15.wav,,,,,,,,,1,6,20,9,,,,,,,,,,,,,,,,,,,,,,,,,,,,,,,,,,,167.35921959998086,167.77229560003616,167.8559644798981,None,right,0.6302551000844687,167.85658810008317,None,167.85658810008317,None,167.85658810008317,None,,,01,eme01p,2020_Oct_09_1333,2_afc_eng,2020.2.3,59.933713338575394,
stim2/pa-05.wav,,,,,,,,,1,7,21,7,,,,,,,,,,,,,,,,,,,,,,,,,,,,,,,,,,,168.5096523000393,168.9224068999756,169.0055222799303,None,right,0.7995927999727428,169.00552790006623,None,169.00552790006623,None,169.00552790006623,None,,,01,eme01p,2020_Oct_09_1333,2_afc_eng,2020.2.3,59.933713338575394,
stim2/pa+15.wav,,,,,,,,,1,8,22,2,,,,,,,,,,,,,,,,,,,,,,,,,,,,,,,,,,,169.82518010004424,170.2388001999352,170.32228548002894,None,right,1.0843849999364465,170.32218999997713,None,170.32218999997713,None,170.32218999997713,None,,,01,eme01p,2020_Oct_09_1333,2_afc_eng,2020.2.3,59.933713338575394,
stim2/pa+10.wav,,,,,,,,,1,9,23,1,,,,,,,,,,,,,,,,,,,,,,,,,,,,,,,,,,,171.42554569989443,171.83918199990876,171.92218928008805,None,left,0.8072024001739919,171.92229679995216,None,171.92229679995216,None,171.92229679995216,None,,,01,eme01p,2020_Oct_09_1333,2_afc_eng,2020.2.3,59.933713338575394,
stim2/pa-30.wav,,,,,,,,,1,10,24,12,,,,,,,,,,,,,,,,,,,,,,,,,,,,,,,,,,,172.75734480004758,173.17229010001756,173.25519568000453,None,right,1.2899624998681247,173.25526980008,None,173.25526980008,None,173.25526980008,None,,,01,eme01p,2020_Oct_09_1333,2_afc_eng,2020.2.3,59.933713338575394,
stim2/pa-10.wav,,,,,,,,,1,11,25,8,,,,,,,,,,,,,,,,,,,,,,,,,,,,,,,,,,,174.57807749998756,174.9885171998758,175.07199347990098,None,right,0.7176775999832898,175.07183440006338,None,175.07183440006338,None,175.07183440006338,None,,,01,eme01p,2020_Oct_09_1333,2_afc_eng,2020.2.3,59.933713338575394,
stim2/pa-25.wav,,,,,,,,,1,12,26,11,,,,,,,,,,,,,,,,,,,,,,,,,,,,,,,,,,,175.81003389996476,176.22173850005493,176.30504748008678,None,right,0.818641799967736,176.30508990003727,None,176.30508990003727,None,176.30508990003727,None,,,01,eme01p,2020_Oct_09_1333,2_afc_eng,2020.2.3,59.933713338575394,
stim2/pa+25.wav,,,,,,,,,1,13,27,4,,,,,,,,,,,,,,,,,,,,,,,,,,,,,,,,,,,177.14439389994368,177.55501160002314,177.63856907996814,None,right,0.8592827999964356,177.6382746999152,None,177.6382746999152,None,177.6382746999152,None,,,01,eme01p,2020_Oct_09_1333,2_afc_eng,2020.2.3,59.933713338575394,
stim2/pa-30.wav,,,,,,,,,2,0,28,12,,,,,,,,,,,,,,,,,,,,,,,,,,,,,,,,,,,178.52510880003683,178.9382680999115,179.02161548000294,None,right,0.8288354999385774,179.0219326999504,None,179.0219326999504,None,179.0219326999504,None,,,01,eme01p,2020_Oct_09_1333,2_afc_eng,2020.2.3,59.933713338575394,
stim2/pa-15.wav,,,,,,,,,2,1,29,9,,,,,,,,,,,,,,,,,,,,,,,,,,,,,,,,,,,179.87568879988976,180.28814260009676,180.37174258001613,None,right,0.9446556000038981,180.371551200049,None,180.371551200049,None,180.371551200049,None,,,01,eme01p,2020_Oct_09_1333,2_afc_eng,2020.2.3,59.933713338575394,
stim2/pa+10.wav,,,,,,,,,2,2,30,1,,,,,,,,,,,,,,,,,,,,,,,,,,,,,,,,,,,181.34180659987032,181.75497899996117,181.83805587997193,None,left,0.6869964001234621,181.83809649990872,None,181.83809649990872,None,181.83809649990872,None,,,01,eme01p,2020_Oct_09_1333,2_afc_eng,2020.2.3,59.933713338575394,
stim2/pa-20.wav,,,,,,,,,2,3,31,10,,,,,,,,,,,,,,,,,,,,,,,,,,,,,,,,,,,182.5585789999459,182.9713798998855,183.0546214798698,None,right,0.7128190000075847,183.05490210000426,None,183.05490210000426,None,183.05490210000426,None,,,01,eme01p,2020_Oct_09_1333,2_afc_eng,2020.2.3,59.933713338575394,
stim2/pa+20.wav,,,,,,,,,2,4,32,3,,,,,,,,,,,,,,,,,,,,,,,,,,,,,,,,,,,183.79144619987346,184.2045012000017,184.2878739800537,None,left,0.5358603000640869,184.28793950006366,None,184.28793950006366,None,184.28793950006366,None,,,01,eme01p,2020_Oct_09_1333,2_afc_eng,2020.2.3,59.933713338575394,
stim2/pa+25.wav,,,,,,,,,2,5,33,4,,,,,,,,,,,,,,,,,,,,,,,,,,,,,,,,,,,184.8573960000649,185.2711898998823,185.35444817987735,None,left,0.5507465999107808,185.3546487998683,None,185.3546487998683,None,185.3546487998683,None,,,01,eme01p,2020_Oct_09_1333,2_afc_eng,2020.2.3,59.933713338575394,
stim2/pa+35.wav,,,,,,,,,2,6,34,6,,,,,,,,,,,,,,,,,,,,,,,,,,,,,,,,,,,185.92450540000573,186.33777039987035,186.4210726799676,None,left,0.5932214998174459,186.4210594999604,None,186.4210594999604,None,186.4210594999604,None,,,01,eme01p,2020_Oct_09_1333,2_afc_eng,2020.2.3,59.933713338575394,
stim2/pa+30.wav,,,,,,,,,2,7,35,5,,,,,,,,,,,,,,,,,,,,,,,,,,,,,,,,,,,187.04400920006447,187.4543669000268,187.53771567989605,None,left,0.7092960998415947,187.53776219999418,None,187.53776219999418,None,187.53776219999418,None,,,01,eme01p,2020_Oct_09_1333,2_afc_eng,2020.2.3,59.933713338575394,
stim2/pa-05.wav,,,,,,,,,2,8,36,7,,,,,,,,,,,,,,,,,,,,,,,,,,,,,,,,,,,188.27412019995973,188.68761610006914,188.7711917799199,None,right,0.9531493000686169,188.77099219989032,None,188.77099219989032,None,188.77099219989032,None,,,01,eme01p,2020_Oct_09_1333,2_afc_eng,2020.2.3,59.933713338575394,
stim2/pa-10.wav,,,,,,,,,2,9,37,8,,,,,,,,,,,,,,,,,,,,,,,,,,,,,,,,,,,189.75678259995766,190.17116379993968,190.25424118007066,None,left,0.8608695999719203,190.254528200021,None,190.254528200021,None,190.254528200021,None,,,01,eme01p,2020_Oct_09_1333,2_afc_eng,2020.2.3,59.933713338575394,
stim2/pa-35.wav,,,,,,,,,2,10,38,13,,,,,,,,,,,,,,,,,,,,,,,,,,,,,,,,,,,191.1406360999681,191.55429659993388,191.63748397997114,None,right,0.7272326000966132,191.63751929998398,None,191.63751929998398,None,191.63751929998398,None,,,01,eme01p,2020_Oct_09_1333,2_afc_eng,2020.2.3,59.933713338575394,
stim2/pa-25.wav,,,,,,,,,2,11,39,11,,,,,,,,,,,,,,,,,,,,,,,,,,,,,,,,,,,192.3903699000366,192.80405430006795,192.88759497988502,None,right,0.6211618999950588,192.88743339991197,None,192.88743339991197,None,192.88743339991197,None,,,01,eme01p,2020_Oct_09_1333,2_afc_eng,2020.2.3,59.933713338575394,
stim2/pa+15.wav,,,,,,,,,2,12,40,2,,,,,,,,,,,,,,,,,,,,,,,,,,,,,,,,,,,193.54018909996375,193.95414300006814,194.03747698005753,None,left,0.8609774000942707,194.03733689989895,None,194.03733689989895,None,194.03733689989895,None,,,01,eme01p,2020_Oct_09_1333,2_afc_eng,2020.2.3,59.933713338575394,
stim2/pa+05.wav,,,,,,,,,2,13,41,0,,,,,,,,,,,,,,,,,,,,,,,,,,,,,,,,,,,194.92355170007795,195.33722339989617,195.42062137990723,None,right,0.6222918999847025,195.42085139988922,None,195.42085139988922,None,195.42085139988922,None,,,01,eme01p,2020_Oct_09_1333,2_afc_eng,2020.2.3,59.933713338575394,
stim2/pa-05.wav,,,,,,,,,3,0,42,7,,,,,,,,,,,,,,,,,,,,,,,,,,,,,,,,,,,196.07294570002705,196.4871435998939,196.57083347991573,None,right,0.7276854000519961,196.57082769996487,None,196.57082769996487,None,196.57082769996487,None,,,01,eme01p,2020_Oct_09_1333,2_afc_eng,2020.2.3,59.933713338575394,
stim2/pa-35.wav,,,,,,,,,3,1,43,13,,,,,,,,,,,,,,,,,,,,,,,,,,,,,,,,,,,197.3246494999621,197.73700809990987,197.82066148000303,None,right,0.7284182000439614,197.8206632998772,None,197.8206632998772,None,197.8206632998772,None,,,01,eme01p,2020_Oct_09_1333,2_afc_eng,2020.2.3,59.933713338575394,
stim2/pa-20.wav,,,,,,,,,3,2,44,10,,,,,,,,,,,,,,,,,,,,,,,,,,,,,,,,,,,198.574715499999,198.987036800012,199.07055017997044,None,right,2.40490709990263,199.0703143000137,None,199.0703143000137,None,199.0703143000137,None,,,01,eme01p,2020_Oct_09_1333,2_afc_eng,2020.2.3,59.933713338575394,
stim2/pa-25.wav,,,,,,,,,3,3,45,11,,,,,,,,,,,,,,,,,,,,,,,,,,,,,,,,,,,201.51160319987684,201.9201092000585,202.00351257987785,None,right,0.9036282000597566,202.00364740006626,None,202.00364740006626,None,202.00364740006626,None,,,01,eme01p,2020_Oct_09_1333,2_afc_eng,2020.2.3,59.933713338575394,
stim2/pa-10.wav,,,,,,,,,3,4,46,8,,,,,,,,,,,,,,,,,,,,,,,,,,,,,,,,,,,202.93962939991616,203.35356259997934,203.4369602798717,None,right,0.7478251000866294,203.43671349994838,None,203.43671349994838,None,203.43671349994838,None,,,01,eme01p,2020_Oct_09_1333,2_afc_eng,2020.2.3,59.933713338575394,
stim2/pa+35.wav,,,,,,,,,3,5,47,6,,,,,,,,,,,,,,,,,,,,,,,,,,,,,,,,,,,204.20736650004983,204.62020260002464,204.70322508008684,None,right,0.8002681999932975,204.70338000007905,None,204.70338000007905,None,204.70338000007905,None,,,01,eme01p,2020_Oct_09_1333,2_afc_eng,2020.2.3,59.933713338575394,
stim2/pa+30.wav,,,,,,,,,3,6,48,5,,,,,,,,,,,,,,,,,,,,,,,,,,,,,,,,,,,205.52621029992588,205.93656890001148,206.0202155799372,None,left,2.0243485998362303,206.0199078998994,None,206.0199078998994,None,206.0199078998994,None,,,01,eme01p,2020_Oct_09_1333,2_afc_eng,2020.2.3,59.933713338575394,
stim2/pa+10.wav,,,,,,,,,3,7,49,1,,,,,,,,,,,,,,,,,,,,,,,,,,,,,,,,,,,208.07199659990147,208.48675370006822,208.56998278007376,None,left,0.8146806000731885,208.56975949998014,None,208.56975949998014,None,208.56975949998014,None,,,01,eme01p,2020_Oct_09_1333,2_afc_eng,2020.2.3,59.933713338575394,
stim2/pa+05.wav,,,,,,,,,3,8,50,0,,,,,,,,,,,,,,,,,,,,,,,,,,,,,,,,,,,209.40622709994204,209.81969209993258,209.90338248007464,None,left,0.7039167999755591,209.90306599996984,None,209.90306599996984,None,209.90306599996984,None,,,01,eme01p,2020_Oct_09_1333,2_afc_eng,2020.2.3,59.933713338575394,
stim2/pa+15.wav,,,,,,,,,3,9,51,2,,,,,,,,,,,,,,,,,,,,,,,,,,,,,,,,,,,210.64039839990437,211.05284880008548,211.1364985799184,None,left,0.7348641001153737,211.13721069996245,None,211.13721069996245,None,211.13721069996245,None,,,01,eme01p,2020_Oct_09_1333,2_afc_eng,2020.2.3,59.933713338575394,
stim2/pa-30.wav,,,,,,,,,3,10,52,12,,,,,,,,,,,,,,,,,,,,,,,,,,,,,,,,,,,211.90705549996346,212.31967659993097,212.4029059800552,None,right,0.7003061999566853,212.40316289989278,None,212.40316289989278,None,212.40316289989278,None,,,01,eme01p,2020_Oct_09_1333,2_afc_eng,2020.2.3,59.933713338575394,
stim2/pa+25.wav,,,,,,,,,3,11,53,4,,,,,,,,,,,,,,,,,,,,,,,,,,,,,,,,,,,213.13958319998346,213.5531152000185,213.63610397994051,None,left,0.6460252001415938,213.6362932000775,None,213.6362932000775,None,213.6362932000775,None,,,01,eme01p,2020_Oct_09_1333,2_afc_eng,2020.2.3,59.933713338575394,
stim2/pa+20.wav,,,,,,,,,3,12,54,3,,,,,,,,,,,,,,,,,,,,,,,,,,,,,,,,,,,214.306052000029,214.71921820007265,214.80304478008765,None,right,0.517182300100103,214.80296549992636,None,214.80296549992636,None,214.80296549992636,None,,,01,eme01p,2020_Oct_09_1333,2_afc_eng,2020.2.3,59.933713338575394,
stim2/pa-15.wav,,,,,,,,,3,13,55,9,,,,,,,,,,,,,,,,,,,,,,,,,,,,,,,,,,,215.34123859996907,215.75256659998558,215.83598177989478,None,right,0.8272474000696093,215.83624419989064,None,215.83624419989064,None,215.83624419989064,None,,,01,eme01p,2020_Oct_09_1333,2_afc_eng,2020.2.3,59.933713338575394,
stim2/pa+15.wav,,,,,,,,,4,0,56,2,,,,,,,,,,,,,,,,,,,,,,,,,,,,,,,,,,,216.6889551000204,217.10255449987017,217.18582257993984,None,left,0.49652939988300204,217.18639330007136,None,217.18639330007136,None,217.18639330007136,None,,,01,eme01p,2020_Oct_09_1333,2_afc_eng,2020.2.3,59.933713338575394,
stim2/pa-10.wav,,,,,,,,,4,1,57,8,,,,,,,,,,,,,,,,,,,,,,,,,,,,,,,,,,,217.70643189991824,218.1190220999997,218.20262907997238,None,right,0.5753030001651496,218.20283009996638,None,218.20283009996638,None,218.20283009996638,None,,,01,eme01p,2020_Oct_09_1333,2_afc_eng,2020.2.3,59.933713338575394,
stim2/pa+10.wav,,,,,,,,,4,2,58,1,,,,,,,,,,,,,,,,,,,,,,,,,,,,,,,,,,,218.80605729995295,219.21910099987872,219.30281397996004,None,left,0.5055750000756234,219.30248899990693,None,219.30248899990693,None,219.30248899990693,None,,,01,eme01p,2020_Oct_09_1333,2_afc_eng,2020.2.3,59.933713338575394,
stim2/pa-15.wav,,,,,,,,,4,3,59,9,,,,,,,,,,,,,,,,,,,,,,,,,,,,,,,,,,,219.83824809989892,220.25228930008598,220.335598279885,None,right,0.6288667998742312,220.33640690008178,None,220.33640690008178,None,220.33640690008178,None,,,01,eme01p,2020_Oct_09_1333,2_afc_eng,2020.2.3,59.933713338575394,
stim2/pa+35.wav,,,,,,,,,4,4,60,6,,,,,,,,,,,,,,,,,,,,,,,,,,,,,,,,,,,220.99004069995135,221.40265349997208,221.48562968003097,None,left,0.478843400022015,221.4858438000083,None,221.4858438000083,None,221.4858438000083,None,,,01,eme01p,2020_Oct_09_1333,2_afc_eng,2020.2.3,59.933713338575394,
stim2/pa+05.wav,,,,,,,,,4,5,61,0,,,,,,,,,,,,,,,,,,,,,,,,,,,,,,,,,,,221.99093539989553,222.40250679990277,222.4854419798823,None,right,0.3858396001160145,222.48666689987294,None,222.48666689987294,None,222.48666689987294,None,,,01,eme01p,2020_Oct_09_1333,2_afc_eng,2020.2.3,59.933713338575394,
stim2/pa-35.wav,,,,,,,,,4,6,62,13,,,,,,,,,,,,,,,,,,,,,,,,,,,,,,,,,,,222.9048947999254,223.31865140004084,223.40244067988823,None,right,0.7641531999688596,223.4025012999773,None,223.4025012999773,None,223.4025012999773,None,,,01,eme01p,2020_Oct_09_1333,2_afc_eng,2020.2.3,59.933713338575394,
stim2/pa-25.wav,,,,,,,,,4,7,63,11,,,,,,,,,,,,,,,,,,,,,,,,,,,,,,,,,,,224.18929450004362,224.60228409990668,224.68572147998492,None,right,0.7148605000693351,224.68545909994282,None,224.68545909994282,None,224.68545909994282,None,,,01,eme01p,2020_Oct_09_1333,2_afc_eng,2020.2.3,59.933713338575394,
stim2/pa-30.wav,,,,,,,,,4,8,64,12,,,,,,,,,,,,,,,,,,,,,,,,,,,,,,,,,,,225.4220700999722,225.83532619988546,225.91870758000294,None,right,0.5992196002043784,225.91850859997794,None,225.91850859997794,None,225.91850859997794,None,,,01,eme01p,2020_Oct_09_1333,2_afc_eng,2020.2.3,59.933713338575394,
stim2/pa-05.wav,,,,,,,,,4,9,65,7,,,,,,,,,,,,,,,,,,,,,,,,,,,,,,,,,,,226.53956469986588,226.95195519994013,227.03531257987487,None,right,0.8156266999430954,227.03626780002378,None,227.03626780002378,None,227.03626780002378,None,,,01,eme01p,2020_Oct_09_1333,2_afc_eng,2020.2.3,59.933713338575394,
stim2/pa+25.wav,,,,,,,,,4,10,66,4,,,,,,,,,,,,,,,,,,,,,,,,,,,,,,,,,,,227.87179480004124,228.2852052000817,228.36856127989012,None,right,1.0990542999934405,228.36862129997462,None,228.36862129997462,None,228.36862129997462,None,,,01,eme01p,2020_Oct_09_1333,2_afc_eng,2020.2.3,59.933713338575394,
stim2/pa+30.wav,,,,,,,,,4,11,67,5,,,,,,,,,,,,,,,,,,,,,,,,,,,,,,,,,,,229.48484580009244,229.88543900009245,229.9686056800885,None,right,0.9983139999676496,229.96845929999836,None,229.96845929999836,None,229.96845929999836,None,,,01,eme01p,2020_Oct_09_1333,2_afc_eng,2020.2.3,59.933713338575394,
stim2/pa-20.wav,,,,,,,,,4,12,68,10,,,,,,,,,,,,,,,,,,,,,,,,,,,,,,,,,,,230.98797639994882,231.40170560008846,231.48499237995128,None,right,0.8052388001233339,231.48525850009173,None,231.48525850009173,None,231.48525850009173,None,,,01,eme01p,2020_Oct_09_1333,2_afc_eng,2020.2.3,59.933713338575394,
stim2/pa+20.wav,,,,,,,,,4,13,69,3,,,,,,,,,,,,,,,,,,,,,,,,,,,,,,,,,,,232.3218391998671,232.73526460002176,232.818463379913,None,left,0.6322353999130428,232.81821199995466,None,232.81821199995466,None,232.81821199995466,None,,,01,eme01p,2020_Oct_09_1333,2_afc_eng,2020.2.3,59.933713338575394,
,,,,,,,,,,,,,,,,,,,,,,,,,,,,,,,,,,,,,,,,,,,,,,,,,,,,,,,,,,,233.7890558000654,None,,,,,,,
