stimuli,trials.thisRepN,trials.thisTrialN,trials.thisN,trials.thisIndex,trials_2.thisRepN,trials_2.thisTrialN,trials_2.thisN,trials_2.thisIndex,trials_3.thisRepN,trials_3.thisTrialN,trials_3.thisN,trials_3.thisIndex,instrText.started,instrText.stopped,cross_tr.started,cross_tr.stopped,sound_1.started,sound_1.stopped,resp.keys,resp.rt,resp.started,resp.stopped,eefree_p.started,eefree_p.stopped,offree_practice.started,offree_practice.stopped,gotIT.started,gotIT.stopped,gotResponse.keys,gotResponse.rt,gotResponse.started,gotResponse.stopped,cross_tr_2.started,cross_tr_2.stopped,sound_2.started,sound_2.stopped,resp_2.keys,resp_2.rt,resp_2.started,resp_2.stopped,eefree_p_2.started,eefree_p_2.stopped,offree_practice_2.started,offree_practice_2.stopped,instrText_2.started,instrText_2.stopped,cross_tr_3.started,cross_tr_3.stopped,sound_3.started,sound_3.stopped,resp_3.keys,resp_3.rt,resp_3.started,resp_3.stopped,pafri.started,pafri.stopped,bafri.started,bafri.stopped,thanksText.started,thanksText.stopped,session,participant,date,expName,psychopyVersion,frameRate,
stim/VC_01.wav,0,0,0,0,,,,,,,,,35.755540600046515,None,36.906018800102174,37.313340299995616,37.39648850003723,None,left,0.9681400000117719,37.396310600219294,None,37.396310600219294,None,37.396310600219294,None,,,,,,,,,,,,,,,,,,,,,,,,,,,,,,,,,,,01,see01p,2020_Oct_09_1352,2_afc_eng,2020.2.3,59.95894016808994,
stim/VC_11.wav,0,1,1,1,,,,,,,,,,,38.38498060009442,38.79634550004266,38.879943800135514,None,right,2.510069200070575,38.87987640011124,None,38.87987640011124,None,38.87987640011124,None,,,,,,,,,,,,,,,,,,,,,,,,,,,,,,,,,,,01,see01p,2020_Oct_09_1352,2_afc_eng,2020.2.3,59.95894016808994,
,,,,,,,,,,,,,,,,,,,,,,,,,,,42.24668370001018,None,space,0.2523630999494344,42.4963435002137,None,,,,,,,,,,,,,,,,,,,,,,,,,,,,,01,see01p,2020_Oct_09_1352,2_afc_eng,2020.2.3,59.95894016808994,
stim/VC_04.wav,,,,,0,0,0,3,,,,,,,,,,,,,,,,,,,,,,,,,42.794964800123125,43.19590070005506,43.279427800071424,None,left,0.8441136998590082,43.2795987999998,None,43.2795987999998,None,43.2795987999998,None,,,,,,,,,,,,,,,,,01,see01p,2020_Oct_09_1352,2_afc_eng,2020.2.3,59.95894016808994,
stim/VC_06.wav,,,,,0,1,1,5,,,,,,,,,,,,,,,,,,,,,,,,,44.15101850009523,44.56318729999475,44.646116200112736,None,left,0.8944244000595063,44.64641010016203,None,44.64641010016203,None,44.64641010016203,None,,,,,,,,,,,,,,,,,01,see01p,2020_Oct_09_1352,2_afc_eng,2020.2.3,59.95894016808994,
stim/VC_09.wav,,,,,0,2,2,8,,,,,,,,,,,,,,,,,,,,,,,,,45.565151300048456,45.979358800221235,46.062761800107545,None,right,1.1261715998407453,46.06253270013258,None,46.06253270013258,None,46.06253270013258,None,,,,,,,,,,,,,,,,,01,see01p,2020_Oct_09_1352,2_afc_eng,2020.2.3,59.95894016808994,
stim/VC_11.wav,,,,,0,3,3,10,,,,,,,,,,,,,,,,,,,,,,,,,47.21675660018809,47.62930340017192,47.712766500166616,None,right,0.7702709999866784,47.71296700020321,None,47.71296700020321,None,47.71296700020321,None,,,,,,,,,,,,,,,,,01,see01p,2020_Oct_09_1352,2_afc_eng,2020.2.3,59.95894016808994,
stim/VC_10.wav,,,,,0,4,4,9,,,,,,,,,,,,,,,,,,,,,,,,,48.514873900217935,48.92901480011642,49.01242630018387,None,right,1.9105599999893457,49.01254740008153,None,49.01254740008153,None,49.01254740008153,None,,,,,,,,,,,,,,,,,01,see01p,2020_Oct_09_1352,2_afc_eng,2020.2.3,59.95894016808994,
stim/VC_03.wav,,,,,0,5,5,2,,,,,,,,,,,,,,,,,,,,,,,,,50.95070690009743,51.36258750013076,51.44575100017246,None,left,0.8030536998994648,51.445986800128594,None,51.445986800128594,None,51.445986800128594,None,,,,,,,,,,,,,,,,,01,see01p,2020_Oct_09_1352,2_afc_eng,2020.2.3,59.95894016808994,
stim/VC_01.wav,,,,,0,6,6,0,,,,,,,,,,,,,,,,,,,,,,,,,52.28249530005269,52.6957614000421,52.779045800189486,None,left,0.7544285000767559,52.77905140002258,None,52.77905140002258,None,52.77905140002258,None,,,,,,,,,,,,,,,,,01,see01p,2020_Oct_09_1352,2_afc_eng,2020.2.3,59.95894016808994,
stim/VC_08.wav,,,,,0,7,7,7,,,,,,,,,,,,,,,,,,,,,,,,,53.565750900190324,53.97889870009385,54.062397300009614,None,right,0.698478999780491,54.06233530002646,None,54.06233530002646,None,54.06233530002646,None,,,,,,,,,,,,,,,,,01,see01p,2020_Oct_09_1352,2_afc_eng,2020.2.3,59.95894016808994,
stim/VC_07.wav,,,,,0,8,8,6,,,,,,,,,,,,,,,,,,,,,,,,,54.782538700150326,55.19529340020381,55.27893810018431,None,right,1.0683270001318306,55.278909400105476,None,55.278909400105476,None,55.278909400105476,None,,,,,,,,,,,,,,,,,01,see01p,2020_Oct_09_1352,2_afc_eng,2020.2.3,59.95894016808994,
stim/VC_02.wav,,,,,0,9,9,1,,,,,,,,,,,,,,,,,,,,,,,,,56.36837620008737,56.77875000005588,56.862328200112096,None,left,0.7354063999373466,56.861885300138965,None,56.861885300138965,None,56.861885300138965,None,,,,,,,,,,,,,,,,,01,see01p,2020_Oct_09_1352,2_afc_eng,2020.2.3,59.95894016808994,
stim/VC_05.wav,,,,,0,10,10,4,,,,,,,,,,,,,,,,,,,,,,,,,57.63158330018632,58.045688500162214,58.128952400037086,None,right,2.223603299818933,58.12942720018327,None,58.12942720018327,None,58.12942720018327,None,,,,,,,,,,,,,,,,,01,see01p,2020_Oct_09_1352,2_afc_eng,2020.2.3,59.95894016808994,
stim/VC_02.wav,,,,,1,0,11,1,,,,,,,,,,,,,,,,,,,,,,,,,60.3824480001349,60.79535080003552,60.8784580002306,None,left,0.9782710000872612,60.878716700011864,None,60.878716700011864,None,60.878716700011864,None,,,,,,,,,,,,,,,,,01,see01p,2020_Oct_09_1352,2_afc_eng,2020.2.3,59.95894016808994,
stim/VC_10.wav,,,,,1,1,12,9,,,,,,,,,,,,,,,,,,,,,,,,,61.883840300142765,62.2952593001537,62.37841720015276,None,right,0.7546305998694152,62.37903990014456,None,62.37903990014456,None,62.37903990014456,None,,,,,,,,,,,,,,,,,01,see01p,2020_Oct_09_1352,2_afc_eng,2020.2.3,59.95894016808994,
stim/VC_01.wav,,,,,1,2,13,0,,,,,,,,,,,,,,,,,,,,,,,,,63.16355620021932,63.578423800179735,63.66171100011561,None,left,1.4953022999688983,63.661586800124496,None,63.661586800124496,None,63.661586800124496,None,,,,,,,,,,,,,,,,,01,see01p,2020_Oct_09_1352,2_afc_eng,2020.2.3,59.95894016808994,
stim/VC_05.wav,,,,,1,3,14,4,,,,,,,,,,,,,,,,,,,,,,,,,65.18046730011702,65.59488099999726,65.67786350005773,None,right,1.5020493001211435,65.67912990017794,None,65.67912990017794,None,65.67912990017794,None,,,,,,,,,,,,,,,,,01,see01p,2020_Oct_09_1352,2_afc_eng,2020.2.3,59.95894016808994,
stim/VC_06.wav,,,,,1,4,15,5,,,,,,,,,,,,,,,,,,,,,,,,,67.21351070003584,67.62827990017831,67.71164610001725,None,right,1.9194598998874426,67.71143760019913,None,67.71143760019913,None,67.71143760019913,None,,,,,,,,,,,,,,,,,01,see01p,2020_Oct_09_1352,2_afc_eng,2020.2.3,59.95894016808994,
stim/VC_04.wav,,,,,1,5,16,3,,,,,,,,,,,,,,,,,,,,,,,,,69.66565850004554,70.07821290008724,70.16119830005337,None,left,0.7562251000199467,70.16127600008622,None,70.16127600008622,None,70.16127600008622,None,,,,,,,,,,,,,,,,,01,see01p,2020_Oct_09_1352,2_afc_eng,2020.2.3,59.95894016808994,
stim/VC_11.wav,,,,,1,6,17,10,,,,,,,,,,,,,,,,,,,,,,,,,70.94776430004276,71.36141470004804,71.44467730002944,None,right,0.6413091998547316,71.44459210010245,None,71.44459210010245,None,71.44459210010245,None,,,,,,,,,,,,,,,,,01,see01p,2020_Oct_09_1352,2_afc_eng,2020.2.3,59.95894016808994,
stim/VC_09.wav,,,,,1,7,18,8,,,,,,,,,,,,,,,,,,,,,,,,,72.11579940002412,72.5278786001727,72.61119080006611,None,right,0.5870697000063956,72.61122360010631,None,72.61122360010631,None,72.61122360010631,None,,,,,,,,,,,,,,,,,01,see01p,2020_Oct_09_1352,2_afc_eng,2020.2.3,59.95894016808994,
stim/VC_07.wav,,,,,1,8,19,6,,,,,,,,,,,,,,,,,,,,,,,,,73.23035740014166,73.64455260010436,73.7277341000503,None,right,0.581262200139463,73.7276078001596,None,73.7276078001596,None,73.7276078001596,None,,,,,,,,,,,,,,,,,01,see01p,2020_Oct_09_1352,2_afc_eng,2020.2.3,59.95894016808994,
stim/VC_03.wav,,,,,1,9,20,2,,,,,,,,,,,,,,,,,,,,,,,,,74.33014880004339,74.74431030009873,74.82763530008961,None,left,0.6910555998329073,74.82788380002603,None,74.82788380002603,None,74.82788380002603,None,,,,,,,,,,,,,,,,,01,see01p,2020_Oct_09_1352,2_afc_eng,2020.2.3,59.95894016808994,
stim/VC_08.wav,,,,,1,10,21,7,,,,,,,,,,,,,,,,,,,,,,,,,75.54856540006585,75.9608889000956,76.04443190011662,None,right,0.9680750998668373,76.04429060011171,None,76.04429060011171,None,76.04429060011171,None,,,,,,,,,,,,,,,,,01,see01p,2020_Oct_09_1352,2_afc_eng,2020.2.3,59.95894016808994,
stim/VC_09.wav,,,,,2,0,22,8,,,,,,,,,,,,,,,,,,,,,,,,,77.04759870003909,77.46051490004174,77.54403710013722,None,right,0.5906114000827074,77.5441742001567,None,77.5441742001567,None,77.5441742001567,None,,,,,,,,,,,,,,,,,01,see01p,2020_Oct_09_1352,2_afc_eng,2020.2.3,59.95894016808994,
stim/VC_02.wav,,,,,2,1,23,1,,,,,,,,,,,,,,,,,,,,,,,,,78.16401730012149,78.57741650007665,78.66097750023474,None,left,0.809457000112161,78.66048960015178,None,78.66048960015178,None,78.66048960015178,None,,,,,,,,,,,,,,,,,01,see01p,2020_Oct_09_1352,2_afc_eng,2020.2.3,59.95894016808994,
stim/VC_06.wav,,,,,2,2,24,5,,,,,,,,,,,,,,,,,,,,,,,,,79.49821049999446,79.91072300006635,79.99397030004766,None,left,1.3157645999453962,79.9935699000489,None,79.9935699000489,None,79.9935699000489,None,,,,,,,,,,,,,,,,,01,see01p,2020_Oct_09_1352,2_afc_eng,2020.2.3,59.95894016808994,
stim/VC_04.wav,,,,,2,3,25,3,,,,,,,,,,,,,,,,,,,,,,,,,81.33132970007136,81.7441241000779,81.8272643000586,None,left,0.8670431999489665,81.82731120008975,None,81.82731120008975,None,81.82731120008975,None,,,,,,,,,,,,,,,,,01,see01p,2020_Oct_09_1352,2_afc_eng,2020.2.3,59.95894016808994,
stim/VC_05.wav,,,,,2,4,26,4,,,,,,,,,,,,,,,,,,,,,,,,,82.7118876001332,83.12678550020792,83.2104908001842,None,right,1.6270497001241893,83.21054020011798,None,83.21054020011798,None,83.21054020011798,None,,,,,,,,,,,,,,,,,01,see01p,2020_Oct_09_1352,2_afc_eng,2020.2.3,59.95894016808994,
stim/VC_03.wav,,,,,2,5,27,2,,,,,,,,,,,,,,,,,,,,,,,,,84.86402910016477,85.27722600009292,85.3605262001278,None,left,1.041127400007099,85.36031520017423,None,85.36031520017423,None,85.36031520017423,None,,,,,,,,,,,,,,,,,01,see01p,2020_Oct_09_1352,2_afc_eng,2020.2.3,59.95894016808994,
stim/VC_11.wav,,,,,2,6,28,10,,,,,,,,,,,,,,,,,,,,,,,,,86.42931360006332,86.84352300013416,86.92696040004958,None,right,0.736015799921006,86.92669210000895,None,86.92669210000895,None,86.92669210000895,None,,,,,,,,,,,,,,,,,01,see01p,2020_Oct_09_1352,2_afc_eng,2020.2.3,59.95894016808994,
stim/VC_01.wav,,,,,2,7,29,0,,,,,,,,,,,,,,,,,,,,,,,,,87.69719020021148,88.11017360002734,88.19348200012465,None,left,0.7939319999422878,88.19358439999633,None,88.19358439999633,None,88.19358439999633,None,,,,,,,,,,,,,,,,,01,see01p,2020_Oct_09_1352,2_afc_eng,2020.2.3,59.95894016808994,
stim/VC_10.wav,,,,,2,8,30,9,,,,,,,,,,,,,,,,,,,,,,,,,89.01461140019819,89.42700250004418,89.51016800010112,None,right,1.0333552001975477,89.5100738001056,None,89.5100738001056,None,89.5100738001056,None,,,,,,,,,,,,,,,,,01,see01p,2020_Oct_09_1352,2_afc_eng,2020.2.3,59.95894016808994,
stim/VC_07.wav,,,,,2,9,31,6,,,,,,,,,,,,,,,,,,,,,,,,,90.56287850020453,90.9768249001354,91.06014890011866,None,right,1.615134899970144,91.05979240010493,None,91.05979240010493,None,91.05979240010493,None,,,,,,,,,,,,,,,,,01,see01p,2020_Oct_09_1352,2_afc_eng,2020.2.3,59.95894016808994,
stim/VC_08.wav,,,,,2,10,32,7,,,,,,,,,,,,,,,,,,,,,,,,,92.69737050007097,93.10987450019456,93.19337230010424,None,right,0.9113157000392675,93.19346120022237,None,93.19346120022237,None,93.19346120022237,None,,,,,,,,,,,,,,,,,01,see01p,2020_Oct_09_1352,2_afc_eng,2020.2.3,59.95894016808994,
stim/VC_07.wav,,,,,3,0,33,6,,,,,,,,,,,,,,,,,,,,,,,,,94.12991450005211,94.54332500020973,94.62642410022673,None,right,1.5809887000359595,94.6266789000947,None,94.6266789000947,None,94.6266789000947,None,,,,,,,,,,,,,,,,,01,see01p,2020_Oct_09_1352,2_afc_eng,2020.2.3,59.95894016808994,
stim/VC_01.wav,,,,,3,1,34,0,,,,,,,,,,,,,,,,,,,,,,,,,96.2297451000195,96.6431996000465,96.72627640001011,None,left,2.111534500028938,96.72634480008855,None,96.72634480008855,None,96.72634480008855,None,,,,,,,,,,,,,,,,,01,see01p,2020_Oct_09_1352,2_afc_eng,2020.2.3,59.95894016808994,
stim/VC_06.wav,,,,,3,2,35,5,,,,,,,,,,,,,,,,,,,,,,,,,98.8625090001151,99.2763164001517,99.35950100000483,None,left,2.481656299903989,99.35945360013284,None,99.35945360013284,None,99.35945360013284,None,,,,,,,,,,,,,,,,,01,see01p,2020_Oct_09_1352,2_afc_eng,2020.2.3,59.95894016808994,
stim/VC_10.wav,,,,,3,3,36,9,,,,,,,,,,,,,,,,,,,,,,,,,101.86337400018238,102.27622000011615,102.35937970012893,None,right,0.973632900044322,102.35931080020964,None,102.35931080020964,None,102.35931080020964,None,,,,,,,,,,,,,,,,,01,see01p,2020_Oct_09_1352,2_afc_eng,2020.2.3,59.95894016808994,
stim/VC_09.wav,,,,,3,4,37,8,,,,,,,,,,,,,,,,,,,,,,,,,103.36336520011537,103.77610540017486,103.85941940008198,None,right,2.224842800060287,103.85895260004327,None,103.85895260004327,None,103.85895260004327,None,,,,,,,,,,,,,,,,,01,see01p,2020_Oct_09_1352,2_afc_eng,2020.2.3,59.95894016808994,
stim/VC_02.wav,,,,,3,5,38,1,,,,,,,,,,,,,,,,,,,,,,,,,106.11184130003676,106.52530310000293,106.60870620000642,None,left,0.6625298999715596,106.60908409999683,None,106.60908409999683,None,106.60908409999683,None,,,,,,,,,,,,,,,,,01,see01p,2020_Oct_09_1352,2_afc_eng,2020.2.3,59.95894016808994,
stim/VC_08.wav,,,,,3,6,39,7,,,,,,,,,,,,,,,,,,,,,,,,,107.29807310015894,107.70896870014258,107.79249840017874,None,right,0.8968098999466747,107.79184380010702,None,107.79184380010702,None,107.79184380010702,None,,,,,,,,,,,,,,,,,01,see01p,2020_Oct_09_1352,2_afc_eng,2020.2.3,59.95894016808994,
stim/VC_04.wav,,,,,3,7,40,3,,,,,,,,,,,,,,,,,,,,,,,,,108.71219400013797,109.12582470010966,109.20948930012528,None,left,0.7544885000679642,109.20897540007718,None,109.20897540007718,None,109.20897540007718,None,,,,,,,,,,,,,,,,,01,see01p,2020_Oct_09_1352,2_afc_eng,2020.2.3,59.95894016808994,
stim/VC_11.wav,,,,,3,8,41,10,,,,,,,,,,,,,,,,,,,,,,,,,109.99630890018307,110.40877330000512,110.49227370016743,None,right,0.6381113000679761,110.49210970010608,None,110.49210970010608,None,110.49210970010608,None,,,,,,,,,,,,,,,,,01,see01p,2020_Oct_09_1352,2_afc_eng,2020.2.3,59.95894016808994,
stim/VC_05.wav,,,,,3,9,42,4,,,,,,,,,,,,,,,,,,,,,,,,,111.16218070010655,111.57543880003504,111.65871500012,None,left,0.8047102000564337,111.65857230010442,None,111.65857230010442,None,111.65857230010442,None,,,,,,,,,,,,,,,,,01,see01p,2020_Oct_09_1352,2_afc_eng,2020.2.3,59.95894016808994,
stim/VC_03.wav,,,,,3,10,43,2,,,,,,,,,,,,,,,,,,,,,,,,,112.49473430006765,112.9085985000711,112.99200250019786,None,left,0.9533967999741435,112.99339290009812,None,112.99339290009812,None,112.99339290009812,None,,,,,,,,,,,,,,,,,01,see01p,2020_Oct_09_1352,2_afc_eng,2020.2.3,59.95894016808994,
stim/VC_11.wav,,,,,4,0,44,10,,,,,,,,,,,,,,,,,,,,,,,,,113.97635420016013,114.39232189999893,114.47543870003429,None,right,0.6785035999491811,114.47562300018035,None,114.47562300018035,None,114.47562300018035,None,,,,,,,,,,,,,,,,,01,see01p,2020_Oct_09_1352,2_afc_eng,2020.2.3,59.95894016808994,
stim/VC_04.wav,,,,,4,1,45,3,,,,,,,,,,,,,,,,,,,,,,,,,115.17872460000217,115.59233410004526,115.67518650016282,None,left,0.6264152999501675,115.67557370010763,None,115.67557370010763,None,115.67557370010763,None,,,,,,,,,,,,,,,,,01,see01p,2020_Oct_09_1352,2_afc_eng,2020.2.3,59.95894016808994,
stim/VC_09.wav,,,,,4,2,46,8,,,,,,,,,,,,,,,,,,,,,,,,,116.32859400007874,116.74200790002942,116.82511090019253,None,right,0.6024003000929952,116.82532270019874,None,116.82532270019874,None,116.82532270019874,None,,,,,,,,,,,,,,,,,01,see01p,2020_Oct_09_1352,2_afc_eng,2020.2.3,59.95894016808994,
stim/VC_05.wav,,,,,4,3,47,4,,,,,,,,,,,,,,,,,,,,,,,,,117.46155550004914,117.87517300015315,117.95864490021486,None,left,0.6907394998706877,117.95860990020446,None,117.95860990020446,None,117.95860990020446,None,,,,,,,,,,,,,,,,,01,see01p,2020_Oct_09_1352,2_afc_eng,2020.2.3,59.95894016808994,
stim/VC_03.wav,,,,,4,4,48,2,,,,,,,,,,,,,,,,,,,,,,,,,118.67916940012947,119.09156460012309,119.17539000019897,None,left,0.8076267999131233,119.17517210007645,None,119.17517210007645,None,119.17517210007645,None,,,,,,,,,,,,,,,,,01,see01p,2020_Oct_09_1352,2_afc_eng,2020.2.3,59.95894016808994,
stim/VC_10.wav,,,,,4,5,49,9,,,,,,,,,,,,,,,,,,,,,,,,,120.01138500007801,120.4247472002171,120.50821430000943,None,right,0.7109755000565201,120.50874270009808,None,120.50874270009808,None,120.50874270009808,None,,,,,,,,,,,,,,,,,01,see01p,2020_Oct_09_1352,2_afc_eng,2020.2.3,59.95894016808994,
stim/VC_08.wav,,,,,4,6,50,7,,,,,,,,,,,,,,,,,,,,,,,,,121.24496070016176,121.65825500013307,121.74183840022889,None,right,1.7866735998541117,121.74142450001091,None,121.74142450001091,None,121.74142450001091,None,,,,,,,,,,,,,,,,,01,see01p,2020_Oct_09_1352,2_afc_eng,2020.2.3,59.95894016808994,
stim/VC_06.wav,,,,,4,7,51,5,,,,,,,,,,,,,,,,,,,,,,,,,123.56055280007422,123.97483360022306,124.05814550023061,None,left,0.9375215999316424,124.0589951002039,None,124.0589951002039,None,124.0589951002039,None,,,,,,,,,,,,,,,,,01,see01p,2020_Oct_09_1352,2_afc_eng,2020.2.3,59.95894016808994,
stim/VC_07.wav,,,,,4,8,52,6,,,,,,,,,,,,,,,,,,,,,,,,,125.02717780019157,125.44121590000577,125.52506220012438,None,right,1.3500113000627607,125.52562250010669,None,125.52562250010669,None,125.52562250010669,None,,,,,,,,,,,,,,,,,01,see01p,2020_Oct_09_1352,2_afc_eng,2020.2.3,59.95894016808994,
stim/VC_01.wav,,,,,4,9,53,0,,,,,,,,,,,,,,,,,,,,,,,,,126.89489520015195,127.30794410011731,127.39108630011324,None,left,0.6242368000093848,127.39222470019013,None,127.39222470019013,None,127.39222470019013,None,,,,,,,,,,,,,,,,,01,see01p,2020_Oct_09_1352,2_afc_eng,2020.2.3,59.95894016808994,
stim/VC_02.wav,,,,,4,10,54,1,,,,,,,,,,,,,,,,,,,,,,,,,128.04481880017556,128.45864400011487,128.5408548000036,None,left,0.8068458000198007,128.54085850017145,None,128.54085850017145,None,128.54085850017145,None,,,,,,,,,,,,,,,,,01,see01p,2020_Oct_09_1352,2_afc_eng,2020.2.3,59.95894016808994,
stim2/pa-05.wav,,,,,,,,,0,0,0,7,,,,,,,,,,,,,,,,,,,,,,,,,,,,,,,,,129.4831259001512,None,130.7863940000534,131.1900705001317,131.27531720020343,None,right,3.406965200090781,131.27424170006998,None,131.27424170006998,None,131.27424170006998,None,,,01,see01p,2020_Oct_09_1352,2_afc_eng,2020.2.3,59.95894016808994,
stim2/pa+10.wav,,,,,,,,,0,1,1,1,,,,,,,,,,,,,,,,,,,,,,,,,,,,,,,,,,,134.71381680015475,135.12402079999447,135.20728910013568,None,left,0.9361010000575334,135.20726370019838,None,135.20726370019838,None,135.20726370019838,None,,,01,see01p,2020_Oct_09_1352,2_afc_eng,2020.2.3,59.95894016808994,
stim2/pa+25.wav,,,,,,,,,0,2,2,4,,,,,,,,,,,,,,,,,,,,,,,,,,,,,,,,,,,136.17732400004752,136.59058370022103,136.67547330001835,None,left,0.7673826001118869,136.67411910020746,None,136.67411910020746,None,136.67411910020746,None,,,01,see01p,2020_Oct_09_1352,2_afc_eng,2020.2.3,59.95894016808994,
stim2/pa+20.wav,,,,,,,,,0,3,3,3,,,,,,,,,,,,,,,,,,,,,,,,,,,,,,,,,,,137.462987100007,137.87391429999843,137.95711450020318,None,left,1.0646279000211507,137.95725040021352,None,137.95725040021352,None,137.95725040021352,None,,,01,see01p,2020_Oct_09_1352,2_afc_eng,2020.2.3,59.95894016808994,
stim2/pa+15.wav,,,,,,,,,0,4,4,2,,,,,,,,,,,,,,,,,,,,,,,,,,,,,,,,,,,139.04426830005832,139.45705080009066,139.54039060019423,None,right,0.8009607000276446,139.54039410012774,None,139.54039410012774,None,139.54039410012774,None,,,01,see01p,2020_Oct_09_1352,2_afc_eng,2020.2.3,59.95894016808994,
stim2/pa-10.wav,,,,,,,,,0,5,5,8,,,,,,,,,,,,,,,,,,,,,,,,,,,,,,,,,,,140.36276480020024,140.77352330018766,140.85697710022797,None,right,0.8307936999481171,140.85799920000136,None,140.85799920000136,None,140.85799920000136,None,,,01,see01p,2020_Oct_09_1352,2_afc_eng,2020.2.3,59.95894016808994,
stim2/pa-35.wav,,,,,,,,,0,6,6,13,,,,,,,,,,,,,,,,,,,,,,,,,,,,,,,,,,,141.71398160001263,142.12355020013638,142.20691470007878,None,right,0.6155331002082676,142.2068587001413,None,142.2068587001413,None,142.2068587001413,None,,,01,see01p,2020_Oct_09_1352,2_afc_eng,2020.2.3,59.95894016808994,
stim2/pa-15.wav,,,,,,,,,0,7,7,9,,,,,,,,,,,,,,,,,,,,,,,,,,,,,,,,,,,142.8400650001131,143.24016160005704,143.32351360002068,None,right,0.6085459000896662,143.32470300002024,None,143.32470300002024,None,143.32470300002024,None,,,01,see01p,2020_Oct_09_1352,2_afc_eng,2020.2.3,59.95894016808994,
stim2/pa+05.wav,,,,,,,,,0,8,8,0,,,,,,,,,,,,,,,,,,,,,,,,,,,,,,,,,,,143.9600703001488,144.37356370012276,144.4566733001033,None,right,0.7166243998799473,144.4568150001578,None,144.4568150001578,None,144.4568150001578,None,,,01,see01p,2020_Oct_09_1352,2_afc_eng,2020.2.3,59.95894016808994,
stim2/pa-30.wav,,,,,,,,,0,9,9,12,,,,,,,,,,,,,,,,,,,,,,,,,,,,,,,,,,,145.19470750004984,145.60667520016432,145.69020870022942,None,right,0.7186286998912692,145.69003570009954,None,145.69003570009954,None,145.69003570009954,None,,,01,see01p,2020_Oct_09_1352,2_afc_eng,2020.2.3,59.95894016808994,
stim2/pa-20.wav,,,,,,,,,0,10,10,10,,,,,,,,,,,,,,,,,,,,,,,,,,,,,,,,,,,146.44221270014532,146.8565842001699,146.93998710017186,None,right,0.7288880001287907,146.9399349000305,None,146.9399349000305,None,146.9399349000305,None,,,01,see01p,2020_Oct_09_1352,2_afc_eng,2020.2.3,59.95894016808994,
stim2/pa-25.wav,,,,,,,,,0,11,11,11,,,,,,,,,,,,,,,,,,,,,,,,,,,,,,,,,,,147.6934536001645,148.10646090004593,148.18974610019941,None,right,0.8965665998402983,148.18995470018126,None,148.18995470018126,None,148.18995470018126,None,,,01,see01p,2020_Oct_09_1352,2_afc_eng,2020.2.3,59.95894016808994,
stim2/pa+30.wav,,,,,,,,,0,12,12,5,,,,,,,,,,,,,,,,,,,,,,,,,,,,,,,,,,,149.10969940014184,149.52305730013177,149.60804460009095,None,left,0.7971269998233765,149.60668560001068,None,149.60668560001068,None,149.60668560001068,None,,,01,see01p,2020_Oct_09_1352,2_afc_eng,2020.2.3,59.95894016808994,
stim2/pa+35.wav,,,,,,,,,0,13,13,6,,,,,,,,,,,,,,,,,,,,,,,,,,,,,,,,,,,150.42521010013297,150.83964840020053,150.9230192000745,None,left,1.1648554001003504,150.92303380020894,None,150.92303380020894,None,150.92303380020894,None,,,01,see01p,2020_Oct_09_1352,2_afc_eng,2020.2.3,59.95894016808994,
stim2/pa+25.wav,,,,,,,,,1,0,14,4,,,,,,,,,,,,,,,,,,,,,,,,,,,,,,,,,,,152.10970430006273,152.52292280015536,152.60627650001553,None,right,1.289042599964887,152.60662340000272,None,152.60662340000272,None,152.60662340000272,None,,,01,see01p,2020_Oct_09_1352,2_afc_eng,2020.2.3,59.95894016808994,
stim2/pa-15.wav,,,,,,,,,1,1,15,9,,,,,,,,,,,,,,,,,,,,,,,,,,,,,,,,,,,153.9256853000261,154.3393773001153,154.42305070019793,None,right,0.6734346998855472,154.42299940017983,None,154.42299940017983,None,154.42299940017983,None,,,01,see01p,2020_Oct_09_1352,2_afc_eng,2020.2.3,59.95894016808994,
stim2/pa+20.wav,,,,,,,,,1,2,16,3,,,,,,,,,,,,,,,,,,,,,,,,,,,,,,,,,,,155.12476260005496,155.53927660011686,155.62273790009786,None,left,0.6477982001379132,155.62284550000913,None,155.62284550000913,None,155.62284550000913,None,,,01,see01p,2020_Oct_09_1352,2_afc_eng,2020.2.3,59.95894016808994,
stim2/pa+10.wav,,,,,,,,,1,3,17,1,,,,,,,,,,,,,,,,,,,,,,,,,,,,,,,,,,,156.29340970003977,156.70609320001677,156.78927150017117,None,left,0.5724416000302881,156.7893066999968,None,156.7893066999968,None,156.7893066999968,None,,,01,see01p,2020_Oct_09_1352,2_afc_eng,2020.2.3,59.95894016808994,
stim2/pa+30.wav,,,,,,,,,1,4,18,5,,,,,,,,,,,,,,,,,,,,,,,,,,,,,,,,,,,157.39136100001633,157.80584000004455,157.88944200004917,None,left,0.7349461999256164,157.8890957001131,None,157.8890957001131,None,157.8890957001131,None,,,01,see01p,2020_Oct_09_1352,2_afc_eng,2020.2.3,59.95894016808994,
stim2/pa-35.wav,,,,,,,,,1,5,19,13,,,,,,,,,,,,,,,,,,,,,,,,,,,,,,,,,,,158.64310380001552,159.05585530004464,159.13916750017088,None,right,0.7071887999773026,159.13939400017262,None,159.13939400017262,None,159.13939400017262,None,,,01,see01p,2020_Oct_09_1352,2_afc_eng,2020.2.3,59.95894016808994,
stim2/pa+05.wav,,,,,,,,,1,6,20,0,,,,,,,,,,,,,,,,,,,,,,,,,,,,,,,,,,,159.87555200001225,160.28908260003664,160.3723350001732,None,right,0.759806799935177,160.37227560020983,None,160.37227560020983,None,160.37227560020983,None,,,01,see01p,2020_Oct_09_1352,2_afc_eng,2020.2.3,59.95894016808994,
stim2/pa-05.wav,,,,,,,,,1,7,21,7,,,,,,,,,,,,,,,,,,,,,,,,,,,,,,,,,,,161.15970550011843,161.57257140008733,161.6557381001534,None,right,0.8073057997971773,161.655742400093,None,161.655742400093,None,161.655742400093,None,,,01,see01p,2020_Oct_09_1352,2_afc_eng,2020.2.3,59.95894016808994,
stim2/pa+15.wav,,,,,,,,,1,8,22,2,,,,,,,,,,,,,,,,,,,,,,,,,,,,,,,,,,,162.49305280018598,162.90584040014073,162.98902810013388,None,left,0.6707530999556184,162.98893230012618,None,162.98893230012618,None,162.98893230012618,None,,,01,see01p,2020_Oct_09_1352,2_afc_eng,2020.2.3,59.95894016808994,
stim2/pa-25.wav,,,,,,,,,1,9,23,11,,,,,,,,,,,,,,,,,,,,,,,,,,,,,,,,,,,163.6919002002105,164.10565500007942,164.1891063002171,None,right,1.1977660998236388,164.18882760009728,None,164.18882760009728,None,164.18882760009728,None,,,01,see01p,2020_Oct_09_1352,2_afc_eng,2020.2.3,59.95894016808994,
stim2/pa-30.wav,,,,,,,,,1,10,24,12,,,,,,,,,,,,,,,,,,,,,,,,,,,,,,,,,,,165.40875980001874,165.82227660017088,165.90548750010785,None,right,0.8788739000447094,165.90579330013134,None,165.90579330013134,None,165.90579330013134,None,,,01,see01p,2020_Oct_09_1352,2_afc_eng,2020.2.3,59.95894016808994,
stim2/pa+35.wav,,,,,,,,,1,11,25,6,,,,,,,,,,,,,,,,,,,,,,,,,,,,,,,,,,,166.80889920005575,167.22212760010734,167.30537760022563,None,left,0.7048887999262661,167.30558020016178,None,167.30558020016178,None,167.30558020016178,None,,,01,see01p,2020_Oct_09_1352,2_afc_eng,2020.2.3,59.95894016808994,
stim2/pa-20.wav,,,,,,,,,1,12,26,10,,,,,,,,,,,,,,,,,,,,,,,,,,,,,,,,,,,168.04281570017338,168.45531109999865,168.53854810001795,None,right,0.5834469001274556,168.53896960010752,None,168.53896960010752,None,168.53896960010752,None,,,01,see01p,2020_Oct_09_1352,2_afc_eng,2020.2.3,59.95894016808994,
stim2/pa-10.wav,,,,,,,,,1,13,27,8,,,,,,,,,,,,,,,,,,,,,,,,,,,,,,,,,,,169.14158400008455,169.5551742000971,169.63849430016708,None,right,0.8575523998588324,169.63860170007683,None,169.63860170007683,None,169.63860170007683,None,,,01,see01p,2020_Oct_09_1352,2_afc_eng,2020.2.3,59.95894016808994,
stim2/pa-20.wav,,,,,,,,,2,0,28,10,,,,,,,,,,,,,,,,,,,,,,,,,,,,,,,,,,,170.52428270014934,170.93837620015256,171.02181500007865,None,right,0.7209408001508564,171.02174190012738,None,171.02174190012738,None,171.02174190012738,None,,,01,see01p,2020_Oct_09_1352,2_afc_eng,2020.2.3,59.95894016808994,
stim2/pa+05.wav,,,,,,,,,2,1,29,0,,,,,,,,,,,,,,,,,,,,,,,,,,,,,,,,,,,171.77388160000555,172.1884886000771,172.27179480015766,None,right,0.8579116999171674,172.271657000063,None,172.271657000063,None,172.271657000063,None,,,01,see01p,2020_Oct_09_1352,2_afc_eng,2020.2.3,59.95894016808994,
stim2/pa+20.wav,,,,,,,,,2,2,30,3,,,,,,,,,,,,,,,,,,,,,,,,,,,,,,,,,,,173.15789620019495,173.5718031001743,173.65526730006096,None,left,0.6522843998391181,173.65502180019394,None,173.65502180019394,None,173.65502180019394,None,,,01,see01p,2020_Oct_09_1352,2_afc_eng,2020.2.3,59.95894016808994,
stim2/pa+30.wav,,,,,,,,,2,3,31,5,,,,,,,,,,,,,,,,,,,,,,,,,,,,,,,,,,,174.3414003001526,174.75506230001338,174.83847540009302,None,right,1.7770708000753075,174.83852930017747,None,174.83852930017747,None,174.83852930017747,None,,,01,see01p,2020_Oct_09_1352,2_afc_eng,2020.2.3,59.95894016808994,
stim2/pa-35.wav,,,,,,,,,2,4,32,13,,,,,,,,,,,,,,,,,,,,,,,,,,,,,,,,,,,176.64348530001007,177.0547972000204,177.13811150004622,None,right,0.8584932000376284,177.13841350004077,None,177.13841350004077,None,177.13841350004077,None,,,01,see01p,2020_Oct_09_1352,2_afc_eng,2020.2.3,59.95894016808994,
stim2/pa-30.wav,,,,,,,,,2,5,33,12,,,,,,,,,,,,,,,,,,,,,,,,,,,,,,,,,,,178.0256463000551,178.4381194000598,178.5213575002039,None,right,0.8943153999280185,178.52224620012566,None,178.52224620012566,None,178.52224620012566,None,,,01,see01p,2020_Oct_09_1352,2_afc_eng,2020.2.3,59.95894016808994,
stim2/pa+25.wav,,,,,,,,,2,6,34,4,,,,,,,,,,,,,,,,,,,,,,,,,,,,,,,,,,,179.44258910021745,179.8552341000177,179.9379749002168,None,left,0.6088008000515401,179.9388048001565,None,179.9388048001565,None,179.9388048001565,None,,,01,see01p,2020_Oct_09_1352,2_afc_eng,2020.2.3,59.95894016808994,
stim2/pa-10.wav,,,,,,,,,2,7,35,8,,,,,,,,,,,,,,,,,,,,,,,,,,,,,,,,,,,180.57518650009297,180.98782820021734,181.071254600049,None,right,0.5820154999382794,181.07121940003708,None,181.07121940003708,None,181.07121940003708,None,,,01,see01p,2020_Oct_09_1352,2_afc_eng,2020.2.3,59.95894016808994,
stim2/pa+15.wav,,,,,,,,,2,8,36,2,,,,,,,,,,,,,,,,,,,,,,,,,,,,,,,,,,,181.67479520011693,182.08778490009718,182.1711678001797,None,left,1.0088986998889595,182.1710619002115,None,182.1710619002115,None,182.1710619002115,None,,,01,see01p,2020_Oct_09_1352,2_afc_eng,2020.2.3,59.95894016808994,
stim2/pa-25.wav,,,,,,,,,2,9,37,11,,,,,,,,,,,,,,,,,,,,,,,,,,,,,,,,,,,183.2093562001828,183.62093940004706,183.70472620006186,None,right,0.5433026000391692,183.70434840000235,None,183.70434840000235,None,183.70434840000235,None,,,01,see01p,2020_Oct_09_1352,2_afc_eng,2020.2.3,59.95894016808994,
stim2/pa+10.wav,,,,,,,,,2,10,38,1,,,,,,,,,,,,,,,,,,,,,,,,,,,,,,,,,,,184.27509410004131,184.68800730002113,184.77110110011418,None,left,1.4238260998390615,184.77093710005283,None,184.77093710005283,None,184.77093710005283,None,,,01,see01p,2020_Oct_09_1352,2_afc_eng,2020.2.3,59.95894016808994,
stim2/pa+35.wav,,,,,,,,,2,11,39,6,,,,,,,,,,,,,,,,,,,,,,,,,,,,,,,,,,,186.22467560018413,186.63761510001495,186.7207630001707,None,right,0.6411075999494642,186.72084470000118,None,186.72084470000118,None,186.72084470000118,None,,,01,see01p,2020_Oct_09_1352,2_afc_eng,2020.2.3,59.95894016808994,
stim2/pa-15.wav,,,,,,,,,2,12,40,9,,,,,,,,,,,,,,,,,,,,,,,,,,,,,,,,,,,187.39191330014728,187.80402360018343,187.88737300012727,None,right,0.9546050999779254,187.88770690001547,None,187.88770690001547,None,187.88770690001547,None,,,01,see01p,2020_Oct_09_1352,2_afc_eng,2020.2.3,59.95894016808994,
stim2/pa-05.wav,,,,,,,,,2,13,41,7,,,,,,,,,,,,,,,,,,,,,,,,,,,,,,,,,,,188.87407110002823,189.2874939001631,189.37064060007688,None,right,0.9203644001390785,189.37066160002723,None,189.37066160002723,None,189.37066160002723,None,,,01,see01p,2020_Oct_09_1352,2_afc_eng,2020.2.3,59.95894016808994,
stim2/pa+20.wav,,,,,,,,,3,0,42,3,,,,,,,,,,,,,,,,,,,,,,,,,,,,,,,,,,,190.32530270004645,190.73741630022414,190.8205053000478,None,left,0.6078860000707209,190.82059650006704,None,190.82059650006704,None,190.82059650006704,None,,,01,see01p,2020_Oct_09_1352,2_afc_eng,2020.2.3,59.95894016808994,
stim2/pa-10.wav,,,,,,,,,3,1,43,8,,,,,,,,,,,,,,,,,,,,,,,,,,,,,,,,,,,191.45894710021093,191.87047150009312,191.95409750004765,None,right,0.5909164999611676,191.9538205000572,None,191.9538205000572,None,191.9538205000572,None,,,01,see01p,2020_Oct_09_1352,2_afc_eng,2020.2.3,59.95894016808994,
stim2/pa+10.wav,,,,,,,,,3,2,44,1,,,,,,,,,,,,,,,,,,,,,,,,,,,,,,,,,,,192.57433760003187,192.98725950019434,193.07048580001575,None,left,1.120112600037828,193.07052570022643,None,193.07052570022643,None,193.07052570022643,None,,,01,see01p,2020_Oct_09_1352,2_afc_eng,2020.2.3,59.95894016808994,
stim2/pa+30.wav,,,,,,,,,3,3,45,5,,,,,,,,,,,,,,,,,,,,,,,,,,,,,,,,,,,194.22342480020598,194.63726770016365,194.7203345000511,None,left,0.9640188999474049,194.72044330020435,None,194.72044330020435,None,194.72044330020435,None,,,01,see01p,2020_Oct_09_1352,2_afc_eng,2020.2.3,59.95894016808994,
stim2/pa+35.wav,,,,,,,,,3,4,46,6,,,,,,,,,,,,,,,,,,,,,,,,,,,,,,,,,,,195.70801230007783,196.12019770010374,196.20440230004024,None,left,0.9428181000985205,196.20366770005785,None,196.20366770005785,None,196.20366770005785,None,,,01,see01p,2020_Oct_09_1352,2_afc_eng,2020.2.3,59.95894016808994,
stim2/pa-15.wav,,,,,,,,,3,5,47,9,,,,,,,,,,,,,,,,,,,,,,,,,,,,,,,,,,,197.17353210016154,197.5868643000722,197.67048310020473,None,right,0.6127075999975204,197.67019319999963,None,197.67019319999963,None,197.67019319999963,None,,,01,see01p,2020_Oct_09_1352,2_afc_eng,2020.2.3,59.95894016808994,
stim2/pa-35.wav,,,,,,,,,3,6,48,13,,,,,,,,,,,,,,,,,,,,,,,,,,,,,,,,,,,198.3083317000419,198.72012579999864,198.80354440000374,None,right,0.7177870001178235,198.80342200002633,None,198.80342200002633,None,198.80342200002633,None,,,01,see01p,2020_Oct_09_1352,2_afc_eng,2020.2.3,59.95894016808994,
stim2/pa+05.wav,,,,,,,,,3,7,49,0,,,,,,,,,,,,,,,,,,,,,,,,,,,,,,,,,,,199.54115500021726,199.9536337000318,200.0366570001701,None,right,1.4444705999922007,200.03673000005074,None,200.03673000005074,None,200.03673000005074,None,,,01,see01p,2020_Oct_09_1352,2_afc_eng,2020.2.3,59.95894016808994,
stim2/pa-30.wav,,,,,,,,,3,8,50,12,,,,,,,,,,,,,,,,,,,,,,,,,,,,,,,,,,,201.50805250019766,201.91989590018056,202.0033967001131,None,right,0.8578824000433087,202.00341790006496,None,202.00341790006496,None,202.00341790006496,None,,,01,see01p,2020_Oct_09_1352,2_afc_eng,2020.2.3,59.95894016808994,
stim2/pa+15.wav,,,,,,,,,3,9,51,2,,,,,,,,,,,,,,,,,,,,,,,,,,,,,,,,,,,202.88965470017865,203.3034208000172,203.3864666002104,None,left,1.0559880998916924,203.38647470017895,None,203.38647470017895,None,203.38647470017895,None,,,01,see01p,2020_Oct_09_1352,2_afc_eng,2020.2.3,59.95894016808994,
stim2/pa-20.wav,,,,,,,,,3,10,52,10,,,,,,,,,,,,,,,,,,,,,,,,,,,,,,,,,,,204.47168590012006,204.8865162001457,204.9696702002315,None,right,1.0264572000596672,204.96971289999783,None,204.96971289999783,None,204.96971289999783,None,,,01,see01p,2020_Oct_09_1352,2_afc_eng,2020.2.3,59.95894016808994,
stim2/pa-25.wav,,,,,,,,,3,11,53,11,,,,,,,,,,,,,,,,,,,,,,,,,,,,,,,,,,,206.0227398001589,206.4364791000262,206.51977780016605,None,right,0.8832853001076728,206.5196583000943,None,206.5196583000943,None,206.5196583000943,None,,,01,see01p,2020_Oct_09_1352,2_afc_eng,2020.2.3,59.95894016808994,
stim2/pa-05.wav,,,,,,,,,3,12,54,7,,,,,,,,,,,,,,,,,,,,,,,,,,,,,,,,,,,207.42315100017004,207.8363994001411,207.9196645000251,None,left,0.8144704001024365,207.91952640004456,None,207.91952640004456,None,207.91952640004456,None,,,01,see01p,2020_Oct_09_1352,2_afc_eng,2020.2.3,59.95894016808994,
stim2/pa+25.wav,,,,,,,,,3,13,55,4,,,,,,,,,,,,,,,,,,,,,,,,,,,,,,,,,,,208.75813380000181,209.1694279999938,209.25289530002047,None,left,0.8215026999823749,209.25284910015762,None,209.25284910015762,None,209.25284910015762,None,,,01,see01p,2020_Oct_09_1352,2_afc_eng,2020.2.3,59.95894016808994,
stim2/pa+05.wav,,,,,,,,,4,0,56,0,,,,,,,,,,,,,,,,,,,,,,,,,,,,,,,,,,,210.10612710006535,210.5193031001836,210.60293470018078,None,right,0.6320676000323147,210.6030141999945,None,210.6030141999945,None,210.6030141999945,None,,,01,see01p,2020_Oct_09_1352,2_afc_eng,2020.2.3,59.95894016808994,
stim2/pa-25.wav,,,,,,,,,4,1,57,11,,,,,,,,,,,,,,,,,,,,,,,,,,,,,,,,,,,211.2594236000441,211.6691478001885,211.75269540001173,None,right,0.6711273998953402,211.752660300117,None,211.752660300117,None,211.752660300117,None,,,01,see01p,2020_Oct_09_1352,2_afc_eng,2020.2.3,59.95894016808994,
stim2/pa-20.wav,,,,,,,,,4,2,58,10,,,,,,,,,,,,,,,,,,,,,,,,,,,,,,,,,,,212.4566434000153,212.8692716001533,212.9525650001364,None,right,0.6132708999793977,212.9527791000437,None,212.9527791000437,None,212.9527791000437,None,,,01,see01p,2020_Oct_09_1352,2_afc_eng,2020.2.3,59.95894016808994,
stim2/pa+15.wav,,,,,,,,,4,3,59,2,,,,,,,,,,,,,,,,,,,,,,,,,,,,,,,,,,,213.59177380008623,214.0027819001116,214.08578580010217,None,left,0.7195110998582095,214.0858382000588,None,214.0858382000588,None,214.0858382000588,None,,,01,see01p,2020_Oct_09_1352,2_afc_eng,2020.2.3,59.95894016808994,
stim2/pa-15.wav,,,,,,,,,4,4,60,9,,,,,,,,,,,,,,,,,,,,,,,,,,,,,,,,,,,214.83821790013462,215.2525375999976,215.33568930018228,None,right,0.6416879000607878,215.33594860020094,None,215.33594860020094,None,215.33594860020094,None,,,01,see01p,2020_Oct_09_1352,2_afc_eng,2020.2.3,59.95894016808994,
stim2/pa-10.wav,,,,,,,,,4,5,61,8,,,,,,,,,,,,,,,,,,,,,,,,,,,,,,,,,,,216.00740160001442,216.41896390006877,216.50253130004276,None,right,0.7473468000534922,216.50254430016503,None,216.50254430016503,None,216.50254430016503,None,,,01,see01p,2020_Oct_09_1352,2_afc_eng,2020.2.3,59.95894016808994,
stim2/pa-35.wav,,,,,,,,,4,6,62,13,,,,,,,,,,,,,,,,,,,,,,,,,,,,,,,,,,,217.27240620017983,217.68572860001586,217.76908000020777,None,right,0.6413791999220848,217.7694218000397,None,217.7694218000397,None,217.7694218000397,None,,,01,see01p,2020_Oct_09_1352,2_afc_eng,2020.2.3,59.95894016808994,
stim2/pa+35.wav,,,,,,,,,4,7,63,6,,,,,,,,,,,,,,,,,,,,,,,,,,,,,,,,,,,218.438761100173,218.85218340018764,218.9355457001133,None,left,0.6594533000607044,218.9355110002216,None,218.9355110002216,None,218.9355110002216,None,,,01,see01p,2020_Oct_09_1352,2_afc_eng,2020.2.3,59.95894016808994,
stim2/pa+20.wav,,,,,,,,,4,8,64,3,,,,,,,,,,,,,,,,,,,,,,,,,,,,,,,,,,,219.62385370000266,220.03542070020922,220.11876060019713,None,left,1.2258703999686986,220.11906420020387,None,220.11906420020387,None,220.11906420020387,None,,,01,see01p,2020_Oct_09_1352,2_afc_eng,2020.2.3,59.95894016808994,
stim2/pa+30.wav,,,,,,,,,4,9,65,5,,,,,,,,,,,,,,,,,,,,,,,,,,,,,,,,,,,221.37221980001777,221.7855910002254,221.8686360001797,None,left,1.0971347000449896,221.86874810000882,None,221.86874810000882,None,221.86874810000882,None,,,01,see01p,2020_Oct_09_1352,2_afc_eng,2020.2.3,59.95894016808994,
stim2/pa+10.wav,,,,,,,,,4,10,66,1,,,,,,,,,,,,,,,,,,,,,,,,,,,,,,,,,,,222.9884192000609,223.40185650018975,223.4851828000741,None,left,0.757832899922505,223.4852257000748,None,223.4852257000748,None,223.4852257000748,None,,,01,see01p,2020_Oct_09_1352,2_afc_eng,2020.2.3,59.95894016808994,
stim2/pa-05.wav,,,,,,,,,4,11,67,7,,,,,,,,,,,,,,,,,,,,,,,,,,,,,,,,,,,224.27281730016693,224.68511710013263,224.7687239001738,None,right,0.628632300067693,224.76849730010144,None,224.76849730010144,None,224.76849730010144,None,,,01,see01p,2020_Oct_09_1352,2_afc_eng,2020.2.3,59.95894016808994,
stim2/pa-30.wav,,,,,,,,,4,12,68,12,,,,,,,,,,,,,,,,,,,,,,,,,,,,,,,,,,,225.4220285001211,225.83506390010007,225.91842000021134,None,right,1.0292833000421524,225.91843900014646,None,225.91843900014646,None,225.91843900014646,None,,,01,see01p,2020_Oct_09_1352,2_afc_eng,2020.2.3,59.95894016808994,
stim2/pa+25.wav,,,,,,,,,4,13,69,4,,,,,,,,,,,,,,,,,,,,,,,,,,,,,,,,,,,226.9733624001965,227.3851861001458,227.4683711002348,None,left,0.7256978000514209,227.4683625001926,None,227.4683625001926,None,227.4683625001926,None,,,01,see01p,2020_Oct_09_1352,2_afc_eng,2020.2.3,59.95894016808994,
,,,,,,,,,,,,,,,,,,,,,,,,,,,,,,,,,,,,,,,,,,,,,,,,,,,,,,,,,,,228.5361635000445,None,,,,,,,
