stimuli,trials.thisRepN,trials.thisTrialN,trials.thisN,trials.thisIndex,trials_2.thisRepN,trials_2.thisTrialN,trials_2.thisN,trials_2.thisIndex,trials_3.thisRepN,trials_3.thisTrialN,trials_3.thisN,trials_3.thisIndex,instrText.started,instrText.stopped,cross_tr.started,cross_tr.stopped,sound_1.started,sound_1.stopped,resp.keys,resp.rt,resp.started,resp.stopped,fifri_p.started,fifri_p.stopped,fufri_practice.started,fufri_practice.stopped,gotIT.started,gotIT.stopped,gotResponse.keys,gotResponse.rt,gotResponse.started,gotResponse.stopped,cross_tr_2.started,cross_tr_2.stopped,sound_2.started,sound_2.stopped,resp_2.keys,resp_2.rt,resp_2.started,resp_2.stopped,fifri_p_2.started,fifri_p_2.stopped,fufri_practice_2.started,fufri_practice_2.stopped,instrText_2.started,instrText_2.stopped,cross_tr_3.started,cross_tr_3.stopped,sound_3.started,sound_3.stopped,resp_3.keys,resp_3.rt,resp_3.started,resp_3.stopped,pafri.started,pafri.stopped,bafri.started,bafri.stopped,thanksText.started,thanksText.stopped,session,participant,date,expName,psychopyVersion,frameRate,
stim/VC_11.wav,0,0,0,1,,,,,,,,,24.814821099862456,None,27.38590390002355,27.788374700117856,27.871699859993534,None,left,7.88595570018515,27.87243659980595,None,27.87243659980595,None,27.87243659980595,None,,,,,,,,,,,,,,,,,,,,,,,,,,,,,,,,,,,01,d,2020_Oct_21_1853,2_afc_span,2020.2.3,60.05944685966521,
stim/VC_01.wav,0,1,1,0,,,,,,,,,,,35.78794089984149,36.187860699836165,36.27140636011027,None,left,0.8521844996139407,36.271181900054216,None,36.271181900054216,None,36.271181900054216,None,,,,,,,,,,,,,,,,,,,,,,,,,,,,,,,,,,,01,d,2020_Oct_21_1853,2_afc_span,2020.2.3,60.05944685966521,
,,,,,,,,,,,,,,,,,,,,,,,,,,,37.921548599842936,38.92101030005142,space,3.6716932002454996,38.171579299960285,None,,,,,,,,,,,,,,,,,,,,,,,,,,,,,01,d,2020_Oct_21_1853,2_afc_span,2020.2.3,60.05944685966521,
stim/VC_08.wav,,,,,0,0,0,7,,,,,,,,,,,,,,,,,,,,,,,,,41.87090059975162,42.27073290012777,42.35442696013488,None,right,1.8976813000626862,42.35414840001613,None,42.35414840001613,None,42.35414840001613,None,,,,,,,,,,,,,,,,,01,d,2020_Oct_21_1853,2_afc_span,2020.2.3,60.05944685966521,
stim/VC_04.wav,,,,,0,1,1,3,,,,,,,,,,,,,,,,,,,,,,,,,44.28003829997033,44.68739609979093,44.77057115980424,None,left,0.8786235000006855,44.77084679994732,None,44.77084679994732,None,44.77084679994732,None,,,,,,,,,,,,,,,,,01,d,2020_Oct_21_1853,2_afc_span,2020.2.3,60.05944685966521,
stim/VC_01.wav,,,,,0,2,2,0,,,,,,,,,,,,,,,,,,,,,,,,,45.67048700014129,46.07052609976381,46.15392476008274,None,left,1.1470154998824,46.1540827001445,None,46.1540827001445,None,46.1540827001445,None,,,,,,,,,,,,,,,,,01,d,2020_Oct_21_1853,2_afc_span,2020.2.3,60.05944685966521,
stim/VC_07.wav,,,,,0,3,3,6,,,,,,,,,,,,,,,,,,,,,,,,,47.32067479984835,47.720422400161624,47.80408816006966,None,right,0.8039413001388311,47.80407830001786,None,47.80407830001786,None,47.80407830001786,None,,,,,,,,,,,,,,,,,01,d,2020_Oct_21_1853,2_afc_span,2020.2.3,60.05944685966521,
stim/VC_10.wav,,,,,0,4,4,9,,,,,,,,,,,,,,,,,,,,,,,,,48.63697100011632,49.03700290014967,49.12055715979077,None,right,0.8576519000343978,49.12052180012688,None,49.12052180012688,None,49.12052180012688,None,,,,,,,,,,,,,,,,,01,d,2020_Oct_21_1853,2_afc_span,2020.2.3,60.05944685966521,
stim/VC_03.wav,,,,,0,5,5,2,,,,,,,,,,,,,,,,,,,,,,,,,50.00482410006225,50.40391029976308,50.50370125998743,None,right,1.3331371997483075,50.50388059997931,None,50.50388059997931,None,50.50388059997931,None,,,,,,,,,,,,,,,,,01,d,2020_Oct_21_1853,2_afc_span,2020.2.3,60.05944685966521,
stim/VC_06.wav,,,,,0,6,6,5,,,,,,,,,,,,,,,,,,,,,,,,,51.8536340999417,52.253264400176704,52.33711685999297,None,right,0.9405354997143149,52.337140900082886,None,52.337140900082886,None,52.337140900082886,None,,,,,,,,,,,,,,,,,01,d,2020_Oct_21_1853,2_afc_span,2020.2.3,60.05944685966521,
stim/VC_05.wav,,,,,0,7,7,4,,,,,,,,,,,,,,,,,,,,,,,,,53.3085036999546,53.72031460003927,53.803433360205965,None,right,0.8770356997847557,53.803551599849015,None,53.803551599849015,None,53.803551599849015,None,,,,,,,,,,,,,,,,,01,d,2020_Oct_21_1853,2_afc_span,2020.2.3,60.05944685966521,
stim/VC_09.wav,,,,,0,8,8,8,,,,,,,,,,,,,,,,,,,,,,,,,54.703400699887425,55.103490700013936,55.186523059988396,None,right,1.6818643999285996,55.186827700119466,None,55.186827700119466,None,55.186827700119466,None,,,,,,,,,,,,,,,,,01,d,2020_Oct_21_1853,2_afc_span,2020.2.3,60.05944685966521,
stim/VC_02.wav,,,,,0,9,9,1,,,,,,,,,,,,,,,,,,,,,,,,,56.88669670000672,57.28658069996163,57.36998366019689,None,left,1.3535672998987138,57.369843499735,None,57.369843499735,None,57.369843499735,None,,,,,,,,,,,,,,,,,01,d,2020_Oct_21_1853,2_afc_span,2020.2.3,60.05944685966521,
stim/VC_11.wav,,,,,0,10,10,10,,,,,,,,,,,,,,,,,,,,,,,,,58.75440299976617,59.16999589977786,59.25304796001874,None,right,0.769077300094068,59.25309759983793,None,59.25309759983793,None,59.25309759983793,None,,,,,,,,,,,,,,,,,01,d,2020_Oct_21_1853,2_afc_span,2020.2.3,60.05944685966521,
stim/VC_08.wav,,,,,1,0,11,7,,,,,,,,,,,,,,,,,,,,,,,,,60.05541929975152,60.46990170003846,60.55314866001718,None,right,0.7083503003232181,60.55309520009905,None,60.55309520009905,None,60.55309520009905,None,,,,,,,,,,,,,,,,,01,d,2020_Oct_21_1853,2_afc_span,2020.2.3,60.05944685966521,
stim/VC_01.wav,,,,,1,1,12,0,,,,,,,,,,,,,,,,,,,,,,,,,61.29235340002924,61.7032785997726,61.78643326009624,None,left,0.6232885997742414,61.786308399867266,None,61.786308399867266,None,61.786308399867266,None,,,,,,,,,,,,,,,,,01,d,2020_Oct_21_1853,2_afc_span,2020.2.3,60.05944685966521,
stim/VC_06.wav,,,,,1,2,13,5,,,,,,,,,,,,,,,,,,,,,,,,,62.43599360017106,62.836246400140226,62.91975086010061,None,right,0.7635452002286911,62.91954719973728,None,62.91954719973728,None,62.91954719973728,None,,,,,,,,,,,,,,,,,01,d,2020_Oct_21_1853,2_afc_span,2020.2.3,60.05944685966521,
stim/VC_03.wav,,,,,1,3,14,2,,,,,,,,,,,,,,,,,,,,,,,,,63.70378640014678,64.10283950017765,64.20300536011345,None,left,0.7800724999979138,64.20303069986403,None,64.20303069986403,None,64.20303069986403,None,,,,,,,,,,,,,,,,,01,d,2020_Oct_21_1853,2_afc_span,2020.2.3,60.05944685966521,
stim/VC_02.wav,,,,,1,4,15,1,,,,,,,,,,,,,,,,,,,,,,,,,65.00284460000694,65.40272320015356,65.48604905991814,None,left,0.735086599830538,65.485975000076,None,65.485975000076,None,65.485975000076,None,,,,,,,,,,,,,,,,,01,d,2020_Oct_21_1853,2_afc_span,2020.2.3,60.05944685966521,
stim/VC_11.wav,,,,,1,5,16,10,,,,,,,,,,,,,,,,,,,,,,,,,66.23764210008085,66.65253670001402,66.73615995994768,None,right,0.6069319997914135,66.7361900000833,None,66.7361900000833,None,66.7361900000833,None,,,,,,,,,,,,,,,,,01,d,2020_Oct_21_1853,2_afc_span,2020.2.3,60.05944685966521,
stim/VC_05.wav,,,,,1,6,17,4,,,,,,,,,,,,,,,,,,,,,,,,,67.36929729999974,67.76943359989673,67.85274565978906,None,right,1.1502646999433637,67.85274189990014,None,67.85274189990014,None,67.85274189990014,None,,,,,,,,,,,,,,,,,01,d,2020_Oct_21_1853,2_afc_span,2020.2.3,60.05944685966521,
stim/VC_09.wav,,,,,1,7,18,8,,,,,,,,,,,,,,,,,,,,,,,,,69.02349760010839,69.43605030002072,69.51888775979168,None,right,0.8651426997967064,69.5190630001016,None,69.5190630001016,None,69.5190630001016,None,,,,,,,,,,,,,,,,,01,d,2020_Oct_21_1853,2_afc_span,2020.2.3,60.05944685966521,
stim/VC_10.wav,,,,,1,8,19,9,,,,,,,,,,,,,,,,,,,,,,,,,70.40368560003117,70.81897589983419,70.90245486018247,None,right,0.741798700299114,70.90247880015522,None,70.90247880015522,None,70.90247880015522,None,,,,,,,,,,,,,,,,,01,d,2020_Oct_21_1853,2_afc_span,2020.2.3,60.05944685966521,
stim/VC_04.wav,,,,,1,9,20,3,,,,,,,,,,,,,,,,,,,,,,,,,71.66901559988037,72.06918099988252,72.15229146010242,None,left,0.793831099756062,72.15236599976197,None,72.15236599976197,None,72.15236599976197,None,,,,,,,,,,,,,,,,,01,d,2020_Oct_21_1853,2_afc_span,2020.2.3,60.05944685966521,
stim/VC_07.wav,,,,,1,10,21,6,,,,,,,,,,,,,,,,,,,,,,,,,72.9692683997564,73.36903310008347,73.45230466001667,None,right,0.8988262000493705,73.4522967999801,None,73.4522967999801,None,73.4522967999801,None,,,,,,,,,,,,,,,,,01,d,2020_Oct_21_1853,2_afc_span,2020.2.3,60.05944685966521,
stim/VC_06.wav,,,,,2,0,22,5,,,,,,,,,,,,,,,,,,,,,,,,,74.36933800019324,74.76867270004004,74.86895285979844,None,right,0.9180999998934567,74.86905639991164,None,74.86905639991164,None,74.86905639991164,None,,,,,,,,,,,,,,,,,01,d,2020_Oct_21_1853,2_afc_span,2020.2.3,60.05944685966521,
stim/VC_11.wav,,,,,2,1,23,10,,,,,,,,,,,,,,,,,,,,,,,,,75.80199790000916,76.20230259979144,76.30190515997819,None,right,0.7509035998955369,76.3021243000403,None,76.3021243000403,None,76.3021243000403,None,,,,,,,,,,,,,,,,,01,d,2020_Oct_21_1853,2_afc_span,2020.2.3,60.05944685966521,
stim/VC_03.wav,,,,,2,2,24,2,,,,,,,,,,,,,,,,,,,,,,,,,77.06869049975649,77.46851320005953,77.55202235993929,None,left,0.7105923998169601,77.55235739983618,None,77.55235739983618,None,77.55235739983618,None,,,,,,,,,,,,,,,,,01,d,2020_Oct_21_1853,2_afc_span,2020.2.3,60.05944685966521,
stim/VC_05.wav,,,,,2,3,25,4,,,,,,,,,,,,,,,,,,,,,,,,,78.28531110007316,78.68548059975728,78.76860565985552,None,right,0.8952005999162793,78.76867009978741,None,78.76867009978741,None,78.76867009978741,None,,,,,,,,,,,,,,,,,01,d,2020_Oct_21_1853,2_afc_span,2020.2.3,60.05944685966521,
stim/VC_08.wav,,,,,2,4,26,7,,,,,,,,,,,,,,,,,,,,,,,,,79.68525329977274,80.08512779977173,80.16843106006272,None,right,0.7241901000961661,80.16858930001035,None,80.16858930001035,None,80.16858930001035,None,,,,,,,,,,,,,,,,,01,d,2020_Oct_21_1853,2_afc_span,2020.2.3,60.05944685966521,
stim/VC_04.wav,,,,,2,5,27,3,,,,,,,,,,,,,,,,,,,,,,,,,80.91908620018512,81.31859500007704,81.4183896599803,None,right,4.370809399988502,81.41844259994105,None,81.41844259994105,None,81.41844259994105,None,,,,,,,,,,,,,,,,,01,d,2020_Oct_21_1853,2_afc_span,2020.2.3,60.05944685966521,
stim/VC_10.wav,,,,,2,6,28,9,,,,,,,,,,,,,,,,,,,,,,,,,85.81826269999146,86.2180433999747,86.30164536009542,None,right,1.0195691999979317,86.30189940007403,None,86.30189940007403,None,86.30189940007403,None,,,,,,,,,,,,,,,,,01,d,2020_Oct_21_1853,2_afc_span,2020.2.3,60.05944685966521,
stim/VC_01.wav,,,,,2,7,29,0,,,,,,,,,,,,,,,,,,,,,,,,,87.3514690999873,87.75137759977952,87.83478096001781,None,left,0.7965796999633312,87.83500229986385,None,87.83500229986385,None,87.83500229986385,None,,,,,,,,,,,,,,,,,01,d,2020_Oct_21_1853,2_afc_span,2020.2.3,60.05944685966521,
stim/VC_07.wav,,,,,2,8,30,6,,,,,,,,,,,,,,,,,,,,,,,,,88.65119000012055,89.05153060005978,89.13454765980131,None,right,0.696348300203681,89.1346542998217,None,89.1346542998217,None,89.1346542998217,None,,,,,,,,,,,,,,,,,01,d,2020_Oct_21_1853,2_afc_span,2020.2.3,60.05944685966521,
stim/VC_09.wav,,,,,2,9,31,8,,,,,,,,,,,,,,,,,,,,,,,,,89.85610269987956,90.26781449979171,90.35139625999145,None,right,0.6419089999981225,90.35221590008587,None,90.35221590008587,None,90.35221590008587,None,,,,,,,,,,,,,,,,,01,d,2020_Oct_21_1853,2_afc_span,2020.2.3,60.05944685966521,
stim/VC_02.wav,,,,,2,10,32,1,,,,,,,,,,,,,,,,,,,,,,,,,91.01784269977361,91.41801609983668,91.50117215993814,None,left,0.6365605001337826,91.50125049985945,None,91.50125049985945,None,91.50125049985945,None,,,,,,,,,,,,,,,,,01,d,2020_Oct_21_1853,2_afc_span,2020.2.3,60.05944685966521,
stim/VC_04.wav,,,,,3,0,33,3,,,,,,,,,,,,,,,,,,,,,,,,,92.16771769989282,92.56797259999439,92.65117145995609,None,left,0.9902018001303077,92.65107529982924,None,92.65107529982924,None,92.65107529982924,None,,,,,,,,,,,,,,,,,01,d,2020_Oct_21_1853,2_afc_span,2020.2.3,60.05944685966521,
stim/VC_10.wav,,,,,3,1,34,9,,,,,,,,,,,,,,,,,,,,,,,,,93.67159389983863,94.08436919981614,94.16799615989439,None,right,0.5458504999987781,94.16776009975001,None,94.16776009975001,None,94.16776009975001,None,,,,,,,,,,,,,,,,,01,d,2020_Oct_21_1853,2_afc_span,2020.2.3,60.05944685966521,
stim/VC_07.wav,,,,,3,2,35,6,,,,,,,,,,,,,,,,,,,,,,,,,94.73609300004318,95.15113659994677,95.23424085988663,None,right,0.8276264001615345,95.2341875997372,None,95.2341875997372,None,95.2341875997372,None,,,,,,,,,,,,,,,,,01,d,2020_Oct_21_1853,2_afc_span,2020.2.3,60.05944685966521,
stim/VC_09.wav,,,,,3,3,36,8,,,,,,,,,,,,,,,,,,,,,,,,,96.08932470018044,96.5009423000738,96.58405755986459,None,right,0.7236065999604762,96.58422729978338,None,96.58422729978338,None,96.58422729978338,None,,,,,,,,,,,,,,,,,01,d,2020_Oct_21_1853,2_afc_span,2020.2.3,60.05944685966521,
stim/VC_06.wav,,,,,3,4,37,5,,,,,,,,,,,,,,,,,,,,,,,,,97.33401220012456,97.73400619998574,97.81769246016628,None,right,1.034823200199753,97.81767169991508,None,97.81767169991508,None,97.81767169991508,None,,,,,,,,,,,,,,,,,01,d,2020_Oct_21_1853,2_afc_span,2020.2.3,60.05944685966521,
stim/VC_03.wav,,,,,3,5,38,2,,,,,,,,,,,,,,,,,,,,,,,,,98.86713059991598,99.26706210011616,99.35039355992339,None,left,0.5856022001244128,99.35039020003751,None,99.35039020003751,None,99.35039020003751,None,,,,,,,,,,,,,,,,,01,d,2020_Oct_21_1853,2_afc_span,2020.2.3,60.05944685966521,
stim/VC_01.wav,,,,,3,6,39,0,,,,,,,,,,,,,,,,,,,,,,,,,99.96720309974626,100.36738099996,100.4505752601195,None,left,0.6843669000081718,100.45102069992572,None,100.45102069992572,None,100.45102069992572,None,,,,,,,,,,,,,,,,,01,d,2020_Oct_21_1853,2_afc_span,2020.2.3,60.05944685966521,
stim/VC_05.wav,,,,,3,7,40,4,,,,,,,,,,,,,,,,,,,,,,,,,101.15055810008198,101.55031650001183,101.63395946021191,None,right,0.6750663002021611,101.63413000013679,None,101.63413000013679,None,101.63413000013679,None,,,,,,,,,,,,,,,,,01,d,2020_Oct_21_1853,2_afc_span,2020.2.3,60.05944685966521,
stim/VC_02.wav,,,,,3,8,41,1,,,,,,,,,,,,,,,,,,,,,,,,,102.3338577998802,102.7337981001474,102.81714705997146,None,left,0.8530280999839306,102.81708450010046,None,102.81708450010046,None,102.81708450010046,None,,,,,,,,,,,,,,,,,01,d,2020_Oct_21_1853,2_afc_span,2020.2.3,60.05944685966521,
stim/VC_11.wav,,,,,3,9,42,10,,,,,,,,,,,,,,,,,,,,,,,,,103.70052490010858,104.10020239977166,104.1836692599114,None,right,0.7192621999420226,104.18361219996586,None,104.18361219996586,None,104.18361219996586,None,,,,,,,,,,,,,,,,,01,d,2020_Oct_21_1853,2_afc_span,2020.2.3,60.05944685966521,
stim/VC_08.wav,,,,,3,10,43,7,,,,,,,,,,,,,,,,,,,,,,,,,104.94780359975994,105.35048090014607,105.43376806019805,None,right,0.9120243997313082,105.43344070017338,None,105.43344070017338,None,105.43344070017338,None,,,,,,,,,,,,,,,,,01,d,2020_Oct_21_1853,2_afc_span,2020.2.3,60.05944685966521,
stim/VC_06.wav,,,,,4,0,44,5,,,,,,,,,,,,,,,,,,,,,,,,,106.3668813998811,106.76681029982865,106.85029345997609,None,left,0.05254389997571707,106.85034930007532,None,106.85034930007532,None,106.85034930007532,None,,,,,,,,,,,,,,,,,01,d,2020_Oct_21_1853,2_afc_span,2020.2.3,60.05944685966521,
stim/VC_09.wav,,,,,4,1,45,8,,,,,,,,,,,,,,,,,,,,,,,,,106.9336251001805,107.33325990010053,107.41734245992265,None,right,0.8153929999098182,107.41685520019382,None,107.41685520019382,None,107.41685520019382,None,,,,,,,,,,,,,,,,,01,d,2020_Oct_21_1853,2_afc_span,2020.2.3,60.05944685966521,
stim/VC_07.wav,,,,,4,2,46,6,,,,,,,,,,,,,,,,,,,,,,,,,108.25002000015229,108.65009430004284,108.73352056010626,None,right,1.2108041001483798,108.73365909978747,None,108.73365909978747,None,108.73365909978747,None,,,,,,,,,,,,,,,,,01,d,2020_Oct_21_1853,2_afc_span,2020.2.3,60.05944685966521,
stim/VC_04.wav,,,,,4,3,47,3,,,,,,,,,,,,,,,,,,,,,,,,,109.96653340011835,110.36647620005533,110.45020526009611,None,left,0.7754617999307811,110.45021380018443,None,110.45021380018443,None,110.45021380018443,None,,,,,,,,,,,,,,,,,01,d,2020_Oct_21_1853,2_afc_span,2020.2.3,60.05944685966521,
stim/VC_01.wav,,,,,4,4,48,0,,,,,,,,,,,,,,,,,,,,,,,,,111.24987479997799,111.65023780008778,111.73306366023607,None,left,1.19769879989326,111.73346959985793,None,111.73346959985793,None,111.73346959985793,None,,,,,,,,,,,,,,,,,01,d,2020_Oct_21_1853,2_afc_span,2020.2.3,60.05944685966521,
stim/VC_05.wav,,,,,4,5,49,4,,,,,,,,,,,,,,,,,,,,,,,,,112.94991979980841,113.34997789980844,113.43312026015482,None,right,0.9613645002245903,113.43303840002045,None,113.43303840002045,None,113.43303840002045,None,,,,,,,,,,,,,,,,,01,d,2020_Oct_21_1853,2_afc_span,2020.2.3,60.05944685966521,
stim/VC_11.wav,,,,,4,6,50,10,,,,,,,,,,,,,,,,,,,,,,,,,114.41647539986297,114.8166320999153,114.91627535982988,None,right,0.7179215997457504,114.9171735001728,None,114.9171735001728,None,114.9171735001728,None,,,,,,,,,,,,,,,,,01,d,2020_Oct_21_1853,2_afc_span,2020.2.3,60.05944685966521,
stim/VC_03.wav,,,,,4,7,51,2,,,,,,,,,,,,,,,,,,,,,,,,,115.66624910011888,116.06656879978254,116.16641996023245,None,left,0.6965826000086963,116.16633559996262,None,116.16633559996262,None,116.16633559996262,None,,,,,,,,,,,,,,,,,01,d,2020_Oct_21_1853,2_afc_span,2020.2.3,60.05944685966521,
stim/VC_10.wav,,,,,4,8,52,9,,,,,,,,,,,,,,,,,,,,,,,,,116.88815650017932,117.29972029989585,117.38287745988927,None,right,0.6542911999858916,117.38295669993386,None,117.38295669993386,None,117.38295669993386,None,,,,,,,,,,,,,,,,,01,d,2020_Oct_21_1853,2_afc_span,2020.2.3,60.05944685966521,
stim/VC_02.wav,,,,,4,9,53,1,,,,,,,,,,,,,,,,,,,,,,,,,118.06610519997776,118.46608499996364,118.5493108598981,None,left,0.7683708001859486,118.54950510011986,None,118.54950510011986,None,118.54950510011986,None,,,,,,,,,,,,,,,,,01,d,2020_Oct_21_1853,2_afc_span,2020.2.3,60.05944685966521,
stim/VC_08.wav,,,,,4,10,54,7,,,,,,,,,,,,,,,,,,,,,,,,,119.35104689979926,119.76621909998357,119.84945436022244,None,right,0.6670547001995146,119.84939880017191,None,119.84939880017191,None,119.84939880017191,None,,,,,,,,,,,,,,,,,01,d,2020_Oct_21_1853,2_afc_span,2020.2.3,60.05944685966521,
stim2/pa-25.wav,,,,,,,,,0,0,0,14,,,,,,,,,,,,,,,,,,,,,,,,,,,,,,,,,120.60448689991608,None,126.61636879993603,127.01590930018574,127.11579475984908,None,right,1.454129499848932,127.11581690004095,None,127.11581690004095,None,127.11581690004095,None,,,01,d,2020_Oct_21_1853,2_afc_span,2020.2.3,60.05944685966521,
stim2/pa+20.wav,,,,,,,,,0,1,1,3,,,,,,,,,,,,,,,,,,,,,,,,,,,,,,,,,,,128.59882279997692,128.99886329984292,129.08242566012777,None,left,0.8484982000663877,129.08249939978123,None,129.08249939978123,None,129.08249939978123,None,,,01,d,2020_Oct_21_1853,2_afc_span,2020.2.3,60.05944685966521,
stim2/pa-35.wav,,,,,,,,,0,2,2,16,,,,,,,,,,,,,,,,,,,,,,,,,,,,,,,,,,,129.95471590012312,130.36550279986113,130.44896546020172,None,right,0.4871192998252809,130.44880140013993,None,130.44880140013993,None,130.44880140013993,None,,,01,d,2020_Oct_21_1853,2_afc_span,2020.2.3,60.05944685966521,
stim2/pa+45.wav,,,,,,,,,0,3,3,8,,,,,,,,,,,,,,,,,,,,,,,,,,,,,,,,,,,130.96546120010316,131.36548030003905,131.4651973598171,None,left,0.622331999707967,131.46542529994622,None,131.46542529994622,None,131.46542529994622,None,,,01,d,2020_Oct_21_1853,2_afc_span,2020.2.3,60.05944685966521,
stim2/pa-05.wav,,,,,,,,,0,4,4,10,,,,,,,,,,,,,,,,,,,,,,,,,,,,,,,,,,,132.1237121000886,132.53201329987496,132.615311159892,None,right,0.5298442002385855,132.6154533000663,None,132.6154533000663,None,132.6154533000663,None,,,01,d,2020_Oct_21_1853,2_afc_span,2020.2.3,60.05944685966521,
stim2/pa-20.wav,,,,,,,,,0,5,5,13,,,,,,,,,,,,,,,,,,,,,,,,,,,,,,,,,,,133.17327280016616,133.58184249978513,133.6654386600945,None,right,0.5026212995871902,133.66550800018013,None,133.66550800018013,None,133.66550800018013,None,,,01,d,2020_Oct_21_1853,2_afc_span,2020.2.3,60.05944685966521,
stim2/pa+40.wav,,,,,,,,,0,6,6,7,,,,,,,,,,,,,,,,,,,,,,,,,,,,,,,,,,,134.2061085999012,134.61523590004072,134.6986952597741,None,left,0.6129018999636173,134.69854729995131,None,134.69854729995131,None,134.69854729995131,None,,,01,d,2020_Oct_21_1853,2_afc_span,2020.2.3,60.05944685966521,
stim2/pa-15.wav,,,,,,,,,0,7,7,12,,,,,,,,,,,,,,,,,,,,,,,,,,,,,,,,,,,135.3414316000417,135.74834399996325,135.83193735978566,None,right,0.5607150001451373,135.83194920001552,None,135.83194920001552,None,135.83194920001552,None,,,01,d,2020_Oct_21_1853,2_afc_span,2020.2.3,60.05944685966521,
stim2/pa+05.wav,,,,,,,,,0,8,8,0,,,,,,,,,,,,,,,,,,,,,,,,,,,,,,,,,,,136.42698039999232,136.8317623999901,136.91512306001968,None,right,0.8292486998252571,136.91525000007823,None,136.91525000007823,None,136.91525000007823,None,,,01,d,2020_Oct_21_1853,2_afc_span,2020.2.3,60.05944685966521,
stim2/pa+30.wav,,,,,,,,,0,9,9,5,,,,,,,,,,,,,,,,,,,,,,,,,,,,,,,,,,,137.77525739977136,138.18155980017036,138.2649483598303,None,left,0.5615330999717116,138.2651451001875,None,138.2651451001875,None,138.2651451001875,None,,,01,d,2020_Oct_21_1853,2_afc_span,2020.2.3,60.05944685966521,
stim2/pa+10.wav,,,,,,,,,0,10,10,1,,,,,,,,,,,,,,,,,,,,,,,,,,,,,,,,,,,138.8481350997463,139.24836329976097,139.34825536017306,None,right,0.5040655001066625,139.34832719992846,None,139.34832719992846,None,139.34832719992846,None,,,01,d,2020_Oct_21_1853,2_afc_span,2020.2.3,60.05944685966521,
stim2/pa-10.wav,,,,,,,,,0,11,11,11,,,,,,,,,,,,,,,,,,,,,,,,,,,,,,,,,,,139.88170289993286,140.28115089982748,140.36498386007733,None,right,0.5801362995989621,140.36487369984388,None,140.36487369984388,None,140.36487369984388,None,,,01,d,2020_Oct_21_1853,2_afc_span,2020.2.3,60.05944685966521,
stim2/pa+50.wav,,,,,,,,,0,12,12,9,,,,,,,,,,,,,,,,,,,,,,,,,,,,,,,,,,,140.9645905997604,141.36474139988422,141.44825596003793,None,left,0.717285200022161,141.4482714999467,None,141.4482714999467,None,141.4482714999467,None,,,01,d,2020_Oct_21_1853,2_afc_span,2020.2.3,60.05944685966521,
stim2/pa+35.wav,,,,,,,,,0,13,13,6,,,,,,,,,,,,,,,,,,,,,,,,,,,,,,,,,,,142.1923134000972,142.59795749979094,142.68149545989,None,left,0.7165415999479592,142.6815212997608,None,142.6815212997608,None,142.6815212997608,None,,,01,d,2020_Oct_21_1853,2_afc_span,2020.2.3,60.05944685966521,
stim2/pa+25.wav,,,,,,,,,0,14,14,4,,,,,,,,,,,,,,,,,,,,,,,,,,,,,,,,,,,143.42032720008865,143.83150020008907,143.9145602599252,None,right,0.5113908001221716,143.91457809973508,None,143.91457809973508,None,143.91457809973508,None,,,01,d,2020_Oct_21_1853,2_afc_span,2020.2.3,60.05944685966521,
stim2/pa+15.wav,,,,,,,,,0,15,15,2,,,,,,,,,,,,,,,,,,,,,,,,,,,,,,,,,,,144.45245529990643,144.86531620007008,144.94802765981294,None,left,0.5788865000940859,144.9480928000994,None,144.9480928000994,None,144.9480928000994,None,,,01,d,2020_Oct_21_1853,2_afc_span,2020.2.3,60.05944685966521,
stim2/pa-30.wav,,,,,,,,,0,16,16,15,,,,,,,,,,,,,,,,,,,,,,,,,,,,,,,,,,,145.54800459975377,145.94788879994303,146.03103666021488,None,right,0.4321865998208523,146.03271850012243,None,146.03271850012243,None,146.03271850012243,None,,,01,d,2020_Oct_21_1853,2_afc_span,2020.2.3,60.05944685966521,
stim2/pa+20.wav,,,,,,,,,1,0,17,3,,,,,,,,,,,,,,,,,,,,,,,,,,,,,,,,,,,146.48113259999081,146.88107240013778,146.96470705992542,None,left,0.5871214000508189,146.96466979989782,None,146.96466979989782,None,146.96466979989782,None,,,01,d,2020_Oct_21_1853,2_afc_span,2020.2.3,60.05944685966521,
stim2/pa-05.wav,,,,,,,,,1,1,18,10,,,,,,,,,,,,,,,,,,,,,,,,,,,,,,,,,,,147.5810834998265,147.9810258001089,148.0642706599552,None,right,0.4925403003580868,148.06436959980056,None,148.06436959980056,None,148.06436959980056,None,,,01,d,2020_Oct_21_1853,2_afc_span,2020.2.3,60.05944685966521,
stim2/pa-35.wav,,,,,,,,,1,2,19,16,,,,,,,,,,,,,,,,,,,,,,,,,,,,,,,,,,,148.58101460011676,148.9808592000045,149.06440175990573,None,right,0.7423648000694811,149.06447849981487,None,149.06447849981487,None,149.06447849981487,None,,,01,d,2020_Oct_21_1853,2_afc_span,2020.2.3,60.05944685966521,
stim2/pa-10.wav,,,,,,,,,1,3,20,11,,,,,,,,,,,,,,,,,,,,,,,,,,,,,,,,,,,149.83590959990397,150.24768389994279,150.33091426002792,None,right,0.5348324002698064,150.33121880004182,None,150.33121880004182,None,150.33121880004182,None,,,01,d,2020_Oct_21_1853,2_afc_span,2020.2.3,60.05944685966521,
stim2/pa+10.wav,,,,,,,,,1,4,21,1,,,,,,,,,,,,,,,,,,,,,,,,,,,,,,,,,,,150.89757450018078,151.29751060018316,151.39743246012367,None,right,0.5574440001510084,151.39737140014768,None,151.39737140014768,None,151.39737140014768,None,,,01,d,2020_Oct_21_1853,2_afc_span,2020.2.3,60.05944685966521,
stim2/pa+40.wav,,,,,,,,,1,5,22,7,,,,,,,,,,,,,,,,,,,,,,,,,,,,,,,,,,,151.98070740001276,152.38066550018266,152.46422276007942,None,left,0.660682899877429,152.46424379991367,None,152.46424379991367,None,152.46424379991367,None,,,01,d,2020_Oct_21_1853,2_afc_span,2020.2.3,60.05944685966521,
stim2/pa-25.wav,,,,,,,,,1,6,23,14,,,,,,,,,,,,,,,,,,,,,,,,,,,,,,,,,,,153.14745339984074,153.54721149988472,153.63072136011905,None,right,0.8620764999650419,153.63079890003428,None,153.63079890003428,None,153.63079890003428,None,,,01,d,2020_Oct_21_1853,2_afc_span,2020.2.3,60.05944685966521,
stim2/pa-15.wav,,,,,,,,,1,7,24,12,,,,,,,,,,,,,,,,,,,,,,,,,,,,,,,,,,,154.51379479980096,154.91399829974398,155.01390675981528,None,right,0.7455127001740038,155.0140546998009,None,155.0140546998009,None,155.0140546998009,None,,,01,d,2020_Oct_21_1853,2_afc_span,2020.2.3,60.05944685966521,
stim2/pa+45.wav,,,,,,,,,1,8,25,8,,,,,,,,,,,,,,,,,,,,,,,,,,,,,,,,,,,155.7805463001132,156.18059530016035,156.26404406004585,None,left,0.6850986001081765,156.26378209982067,None,156.26378209982067,None,156.26378209982067,None,,,01,d,2020_Oct_21_1853,2_afc_span,2020.2.3,60.05944685966521,
stim2/pa-20.wav,,,,,,,,,1,9,26,13,,,,,,,,,,,,,,,,,,,,,,,,,,,,,,,,,,,156.96376470010728,157.36390270013362,157.46378366011194,None,right,1.2529660002328455,157.46391530008987,None,157.46391530008987,None,157.46391530008987,None,,,01,d,2020_Oct_21_1853,2_afc_span,2020.2.3,60.05944685966521,
stim2/pa+25.wav,,,,,,,,,1,10,27,4,,,,,,,,,,,,,,,,,,,,,,,,,,,,,,,,,,,158.74692110018805,159.1471934998408,159.24702296000905,None,left,0.5313232997432351,159.2471492998302,None,159.2471492998302,None,159.2471492998302,None,,,01,d,2020_Oct_21_1853,2_afc_span,2020.2.3,60.05944685966521,
stim2/pa-30.wav,,,,,,,,,1,11,28,15,,,,,,,,,,,,,,,,,,,,,,,,,,,,,,,,,,,159.7999837999232,160.2137422999367,160.297100559948,None,right,0.7477294998243451,160.29687409987673,None,160.29687409987673,None,160.29687409987673,None,,,01,d,2020_Oct_21_1853,2_afc_span,2020.2.3,60.05944685966521,
stim2/pa+05.wav,,,,,,,,,1,12,29,0,,,,,,,,,,,,,,,,,,,,,,,,,,,,,,,,,,,161.0664793998003,161.48028270015493,161.56357266022823,None,right,1.6631791000254452,161.56349309999496,None,161.56349309999496,None,161.56349309999496,None,,,01,d,2020_Oct_21_1853,2_afc_span,2020.2.3,60.05944685966521,
stim2/pa+30.wav,,,,,,,,,1,13,30,5,,,,,,,,,,,,,,,,,,,,,,,,,,,,,,,,,,,163.24661199981347,163.64684830000624,163.73010696019045,None,right,1.2462183004245162,163.7301734997891,None,163.7301734997891,None,163.7301734997891,None,,,01,d,2020_Oct_21_1853,2_afc_span,2020.2.3,60.05944685966521,
stim2/pa+50.wav,,,,,,,,,1,14,31,9,,,,,,,,,,,,,,,,,,,,,,,,,,,,,,,,,,,165.00080840010196,165.41325559979305,165.49687825995497,None,right,1.2870625001378357,165.49681659974158,None,165.49681659974158,None,165.49681659974158,None,,,01,d,2020_Oct_21_1853,2_afc_span,2020.2.3,60.05944685966521,
stim2/pa+15.wav,,,,,,,,,1,15,32,2,,,,,,,,,,,,,,,,,,,,,,,,,,,,,,,,,,,166.81308910017833,167.21323820017278,167.31317836013622,None,right,0.8300247001461685,167.31319579994306,None,167.31319579994306,None,167.31319579994306,None,,,01,d,2020_Oct_21_1853,2_afc_span,2020.2.3,60.05944685966521,
stim2/pa+35.wav,,,,,,,,,1,16,33,6,,,,,,,,,,,,,,,,,,,,,,,,,,,,,,,,,,,168.16960209980607,168.57977870013565,168.6632811600808,None,left,0.8158614998683333,168.66337990015745,None,168.66337990015745,None,168.66337990015745,None,,,01,d,2020_Oct_21_1853,2_afc_span,2020.2.3,60.05944685966521,
stim2/pa-15.wav,,,,,,,,,2,0,34,12,,,,,,,,,,,,,,,,,,,,,,,,,,,,,,,,,,,169.49625919992104,169.89635680010542,169.9797590599861,None,right,0.5407887999899685,169.97985129989684,None,169.97985129989684,None,169.97985129989684,None,,,01,d,2020_Oct_21_1853,2_afc_span,2020.2.3,60.05944685966521,
stim2/pa-05.wav,,,,,,,,,2,1,35,10,,,,,,,,,,,,,,,,,,,,,,,,,,,,,,,,,,,170.54634300014004,170.94604999991134,171.0462591598276,None,right,0.448203899897635,171.04622599994764,None,171.04622599994764,None,171.04622599994764,None,,,01,d,2020_Oct_21_1853,2_afc_span,2020.2.3,60.05944685966521,
stim2/pa+10.wav,,,,,,,,,2,2,36,1,,,,,,,,,,,,,,,,,,,,,,,,,,,,,,,,,,,171.51294129993767,171.91291149985045,171.99609095989726,None,right,0.4675051001831889,171.9963618000038,None,171.9963618000038,None,171.9963618000038,None,,,01,d,2020_Oct_21_1853,2_afc_span,2020.2.3,60.05944685966521,
stim2/pa+40.wav,,,,,,,,,2,3,37,7,,,,,,,,,,,,,,,,,,,,,,,,,,,,,,,,,,,172.479349500034,172.87935480009764,172.96305926018394,None,left,0.592892300337553,172.96311250003055,None,172.96311250003055,None,172.96311250003055,None,,,01,d,2020_Oct_21_1853,2_afc_span,2020.2.3,60.05944685966521,
stim2/pa+05.wav,,,,,,,,,2,4,38,0,,,,,,,,,,,,,,,,,,,,,,,,,,,,,,,,,,,173.57951489975676,173.97932859975845,174.06278286003507,None,left,1.5817117998376489,174.06282310001552,None,174.06282310001552,None,174.06282310001552,None,,,01,d,2020_Oct_21_1853,2_afc_span,2020.2.3,60.05944685966521,
stim2/pa-10.wav,,,,,,,,,2,5,39,11,,,,,,,,,,,,,,,,,,,,,,,,,,,,,,,,,,,175.66271719988436,176.06256610015407,176.145921160141,None,right,1.159187899902463,176.14608479989693,None,176.14608479989693,None,176.14608479989693,None,,,01,d,2020_Oct_21_1853,2_afc_span,2020.2.3,60.05944685966521,
stim2/pa+20.wav,,,,,,,,,2,6,40,3,,,,,,,,,,,,,,,,,,,,,,,,,,,,,,,,,,,177.32919189985842,177.72921889973804,177.81263285982422,None,left,0.9862424000166357,177.81265119975433,None,177.81265119975433,None,177.81265119975433,None,,,01,d,2020_Oct_21_1853,2_afc_span,2020.2.3,60.05944685966521,
stim2/pa+15.wav,,,,,,,,,2,7,41,2,,,,,,,,,,,,,,,,,,,,,,,,,,,,,,,,,,,178.82908429997042,179.22905270010233,179.32924046008847,None,right,0.6423078998923302,179.32913239998743,None,179.32913239998743,None,179.32913239998743,None,,,01,d,2020_Oct_21_1853,2_afc_span,2020.2.3,60.05944685966521,
stim2/pa+50.wav,,,,,,,,,2,8,42,9,,,,,,,,,,,,,,,,,,,,,,,,,,,,,,,,,,,180.00009409990162,180.41258759982884,180.49563106023706,None,left,0.6499020997434855,180.49569390015677,None,180.49569390015677,None,180.49569390015677,None,,,01,d,2020_Oct_21_1853,2_afc_span,2020.2.3,60.05944685966521,
stim2/pa-35.wav,,,,,,,,,2,9,43,16,,,,,,,,,,,,,,,,,,,,,,,,,,,,,,,,,,,181.16225160006434,181.56214509997517,181.64592516017146,None,right,0.5462139002047479,181.6458024000749,None,181.6458024000749,None,181.6458024000749,None,,,01,d,2020_Oct_21_1853,2_afc_span,2020.2.3,60.05944685966521,
stim2/pa-30.wav,,,,,,,,,2,10,44,15,,,,,,,,,,,,,,,,,,,,,,,,,,,,,,,,,,,182.2122253999114,182.61231820005924,182.6958065597806,None,right,0.973539000377059,182.69559080014005,None,182.69559080014005,None,182.69559080014005,None,,,01,d,2020_Oct_21_1853,2_afc_span,2020.2.3,60.05944685966521,
stim2/pa-20.wav,,,,,,,,,2,11,45,13,,,,,,,,,,,,,,,,,,,,,,,,,,,,,,,,,,,183.69530399981886,184.09517000010237,184.17855606009252,None,right,0.9598803999833763,184.17857789993286,None,184.17857789993286,None,184.17857789993286,None,,,01,d,2020_Oct_21_1853,2_afc_span,2020.2.3,60.05944685966521,
stim2/pa+30.wav,,,,,,,,,2,12,46,5,,,,,,,,,,,,,,,,,,,,,,,,,,,,,,,,,,,185.1683561997488,185.57880270015448,185.66215616012923,None,left,1.267240900080651,185.66194899985567,None,185.66194899985567,None,185.66194899985567,None,,,01,d,2020_Oct_21_1853,2_afc_span,2020.2.3,60.05944685966521,
stim2/pa+25.wav,,,,,,,,,2,13,47,4,,,,,,,,,,,,,,,,,,,,,,,,,,,,,,,,,,,186.94527589995414,187.34541760012507,187.42857455988414,None,right,0.782164900097996,187.42865800019354,None,187.42865800019354,None,187.42865800019354,None,,,01,d,2020_Oct_21_1853,2_afc_span,2020.2.3,60.05944685966521,
stim2/pa+35.wav,,,,,,,,,2,14,48,6,,,,,,,,,,,,,,,,,,,,,,,,,,,,,,,,,,,188.2294593998231,188.62847279990092,188.7285104600247,None,left,0.8123744996264577,188.72844019997865,None,188.72844019997865,None,188.72844019997865,None,,,01,d,2020_Oct_21_1853,2_afc_span,2020.2.3,60.05944685966521,
stim2/pa-25.wav,,,,,,,,,2,15,49,14,,,,,,,,,,,,,,,,,,,,,,,,,,,,,,,,,,,189.56670209998265,189.97857820009813,190.0618360598106,None,right,0.6486434997059405,190.06175399990752,None,190.06175399990752,None,190.06175399990752,None,,,01,d,2020_Oct_21_1853,2_afc_span,2020.2.3,60.05944685966521,
stim2/pa+45.wav,,,,,,,,,2,16,50,8,,,,,,,,,,,,,,,,,,,,,,,,,,,,,,,,,,,190.73309249989688,191.1452011000365,191.22839275994338,None,left,0.7429802999831736,191.22817400004715,None,191.22817400004715,None,191.22817400004715,None,,,01,d,2020_Oct_21_1853,2_afc_span,2020.2.3,60.05944685966521,
stim2/pa+15.wav,,,,,,,,,3,0,51,2,,,,,,,,,,,,,,,,,,,,,,,,,,,,,,,,,,,191.99480490013957,192.3948304001242,192.47848636019043,None,left,0.7278650999069214,192.47854269994423,None,192.47854269994423,None,192.47854269994423,None,,,01,d,2020_Oct_21_1853,2_afc_span,2020.2.3,60.05944685966521,
stim2/pa-35.wav,,,,,,,,,3,1,52,16,,,,,,,,,,,,,,,,,,,,,,,,,,,,,,,,,,,193.22792330011725,193.62834999989718,193.71178925982676,None,right,0.6247622002847493,193.71220279997215,None,193.71220279997215,None,193.71220279997215,None,,,01,d,2020_Oct_21_1853,2_afc_span,2020.2.3,60.05944685966521,
stim2/pa+30.wav,,,,,,,,,3,2,53,5,,,,,,,,,,,,,,,,,,,,,,,,,,,,,,,,,,,194.36165389977396,194.76192119996995,194.84464616016484,None,left,0.48077179957181215,194.84483449999243,None,194.84483449999243,None,194.84483449999243,None,,,01,d,2020_Oct_21_1853,2_afc_span,2020.2.3,60.05944685966521,
stim2/pa+35.wav,,,,,,,,,3,3,54,6,,,,,,,,,,,,,,,,,,,,,,,,,,,,,,,,,,,195.34879079973325,195.76182190002874,195.84473126023076,None,left,0.7985978000797331,195.84470020001754,None,195.84470020001754,None,195.84470020001754,None,,,01,d,2020_Oct_21_1853,2_afc_span,2020.2.3,60.05944685966521,
stim2/pa-25.wav,,,,,,,,,3,4,55,14,,,,,,,,,,,,,,,,,,,,,,,,,,,,,,,,,,,196.6615514997393,197.06131949974224,197.14489546013064,None,right,0.5991281997412443,197.1450061001815,None,197.1450061001815,None,197.1450061001815,None,,,01,d,2020_Oct_21_1853,2_afc_span,2020.2.3,60.05944685966521,
stim2/pa-05.wav,,,,,,,,,3,5,56,10,,,,,,,,,,,,,,,,,,,,,,,,,,,,,,,,,,,197.76135799987242,198.16131049999967,198.24478096016682,None,right,0.9786821999587119,198.2448061001487,None,198.2448061001487,None,198.2448061001487,None,,,01,d,2020_Oct_21_1853,2_afc_span,2020.2.3,60.05944685966521,
stim2/pa+50.wav,,,,,,,,,3,6,57,9,,,,,,,,,,,,,,,,,,,,,,,,,,,,,,,,,,,199.24438040005043,199.6444351999089,199.72779625994153,None,left,0.7136613000184298,199.72790209995583,None,199.72790209995583,None,199.72790209995583,None,,,01,d,2020_Oct_21_1853,2_afc_span,2020.2.3,60.05944685966521,
stim2/pa+45.wav,,,,,,,,,3,7,58,8,,,,,,,,,,,,,,,,,,,,,,,,,,,,,,,,,,,200.46428989991546,200.877872900106,200.96119595984928,None,left,0.65073879994452,200.96122399996966,None,200.96122399996966,None,200.96122399996966,None,,,01,d,2020_Oct_21_1853,2_afc_span,2020.2.3,60.05944685966521,
stim2/pa-30.wav,,,,,,,,,3,8,59,15,,,,,,,,,,,,,,,,,,,,,,,,,,,,,,,,,,,201.62993609998375,202.0445171999745,202.1275342601817,None,right,0.5799727998673916,202.12783329980448,None,202.12783329980448,None,202.12783329980448,None,,,01,d,2020_Oct_21_1853,2_afc_span,2020.2.3,60.05944685966521,
stim2/pa-10.wav,,,,,,,,,3,9,60,11,,,,,,,,,,,,,,,,,,,,,,,,,,,,,,,,,,,202.73111219983548,203.1444099000655,203.22755516008473,None,right,0.6994973998516798,203.22788640018553,None,203.22788640018553,None,203.22788640018553,None,,,01,d,2020_Oct_21_1853,2_afc_span,2020.2.3,60.05944685966521,
stim2/pa-15.wav,,,,,,,,,3,10,61,12,,,,,,,,,,,,,,,,,,,,,,,,,,,,,,,,,,,203.94427789980546,204.34407870005816,204.42777446019463,None,right,0.7526219999417663,204.4275231999345,None,204.4275231999345,None,204.4275231999345,None,,,01,d,2020_Oct_21_1853,2_afc_span,2020.2.3,60.05944685966521,
stim2/pa-20.wav,,,,,,,,,3,11,62,13,,,,,,,,,,,,,,,,,,,,,,,,,,,,,,,,,,,205.21410890016705,205.62761100009084,205.71078766011632,None,right,0.7436644998379052,205.71081259986386,None,205.71081259986386,None,205.71081259986386,None,,,01,d,2020_Oct_21_1853,2_afc_span,2020.2.3,60.05944685966521,
stim2/pa+05.wav,,,,,,,,,3,12,63,0,,,,,,,,,,,,,,,,,,,,,,,,,,,,,,,,,,,206.4780831998214,206.87734129978344,206.9773419598583,None,right,1.0422741998918355,206.97745809983462,None,206.97745809983462,None,206.97745809983462,None,,,01,d,2020_Oct_21_1853,2_afc_span,2020.2.3,60.05944685966521,
stim2/pa+25.wav,,,,,,,,,3,13,64,4,,,,,,,,,,,,,,,,,,,,,,,,,,,,,,,,,,,208.04398389998823,208.44398709991947,208.52729586013592,None,right,1.12504079984501,208.52757500018924,None,208.52757500018924,None,208.52757500018924,None,,,01,d,2020_Oct_21_1853,2_afc_span,2020.2.3,60.05944685966521,
stim2/pa+10.wav,,,,,,,,,3,14,65,1,,,,,,,,,,,,,,,,,,,,,,,,,,,,,,,,,,,209.6824039001949,210.0941177001223,210.17718925992958,None,right,0.6319085001014173,210.17714169993997,None,210.17714169993997,None,210.17714169993997,None,,,01,d,2020_Oct_21_1853,2_afc_span,2020.2.3,60.05944685966521,
stim2/pa+40.wav,,,,,,,,,3,15,66,7,,,,,,,,,,,,,,,,,,,,,,,,,,,,,,,,,,,210.8292037998326,211.24399119988084,211.32712255991063,None,left,0.691437799949199,211.32709919987246,None,211.32709919987246,None,211.32709919987246,None,,,01,d,2020_Oct_21_1853,2_afc_span,2020.2.3,60.05944685966521,
stim2/pa+20.wav,,,,,,,,,3,16,67,3,,,,,,,,,,,,,,,,,,,,,,,,,,,,,,,,,,,212.0438024001196,212.44365809997544,212.52725475993938,None,left,0.5478254002518952,212.52733970014378,None,212.52733970014378,None,212.52733970014378,None,,,01,d,2020_Oct_21_1853,2_afc_span,2020.2.3,60.05944685966521,
stim2/pa+45.wav,,,,,,,,,4,0,68,8,,,,,,,,,,,,,,,,,,,,,,,,,,,,,,,,,,,213.0946717998013,213.49379199976102,213.59357466003857,None,left,1.037399800028652,213.59365099994466,None,213.59365099994466,None,213.59365099994466,None,,,01,d,2020_Oct_21_1853,2_afc_span,2020.2.3,60.05944685966521,
stim2/pa-05.wav,,,,,,,,,4,1,69,10,,,,,,,,,,,,,,,,,,,,,,,,,,,,,,,,,,,214.660301099997,215.06024880008772,215.1600671598222,None,right,0.6994191999547184,215.16036600014195,None,215.16036600014195,None,215.16036600014195,None,,,01,d,2020_Oct_21_1853,2_afc_span,2020.2.3,60.05944685966521,
stim2/pa+40.wav,,,,,,,,,4,2,70,7,,,,,,,,,,,,,,,,,,,,,,,,,,,,,,,,,,,215.8769395998679,216.27693169983104,216.36023056008852,None,left,0.8380514001473784,216.3603098001331,None,216.3603098001331,None,216.3603098001331,None,,,01,d,2020_Oct_21_1853,2_afc_span,2020.2.3,60.05944685966521,
stim2/pa+05.wav,,,,,,,,,4,3,71,0,,,,,,,,,,,,,,,,,,,,,,,,,,,,,,,,,,,217.2266580001451,217.62674420000985,217.72701466004364,None,right,1.1264218003489077,217.72687599994242,None,217.72687599994242,None,217.72687599994242,None,,,01,d,2020_Oct_21_1853,2_afc_span,2020.2.3,60.05944685966521,
stim2/pa-10.wav,,,,,,,,,4,4,72,11,,,,,,,,,,,,,,,,,,,,,,,,,,,,,,,,,,,218.88085909979418,219.29328900016844,219.37674056007526,None,right,0.8157025999389589,219.3767313999124,None,219.3767313999124,None,219.3767313999124,None,,,01,d,2020_Oct_21_1853,2_afc_span,2020.2.3,60.05944685966521,
stim2/pa+30.wav,,,,,,,,,4,5,73,5,,,,,,,,,,,,,,,,,,,,,,,,,,,,,,,,,,,220.2098054997623,220.61007450008765,220.70982076008804,None,right,0.9209559997543693,220.7099536000751,None,220.7099536000751,None,220.7099536000751,None,,,01,d,2020_Oct_21_1853,2_afc_span,2020.2.3,60.05944685966521,
stim2/pa-30.wav,,,,,,,,,4,6,74,15,,,,,,,,,,,,,,,,,,,,,,,,,,,,,,,,,,,221.65960109978914,222.06113759987056,222.14338105977512,None,right,0.658549299929291,222.14331590011716,None,222.14331590011716,None,222.14331590011716,None,,,01,d,2020_Oct_21_1853,2_afc_span,2020.2.3,60.05944685966521,
stim2/pa+25.wav,,,,,,,,,4,7,75,4,,,,,,,,,,,,,,,,,,,,,,,,,,,,,,,,,,,222.8298955000937,223.24302960000932,223.3266052600462,None,left,0.6889283997006714,223.3266019001603,None,223.3266019001603,None,223.3266019001603,None,,,01,d,2020_Oct_21_1853,2_afc_span,2020.2.3,60.05944685966521,
stim2/pa-35.wav,,,,,,,,,4,8,76,16,,,,,,,,,,,,,,,,,,,,,,,,,,,,,,,,,,,224.0438077999279,224.4429250000976,224.54306466006673,None,right,0.4449116000905633,224.54323880001903,None,224.54323880001903,None,224.54323880001903,None,,,01,d,2020_Oct_21_1853,2_afc_span,2020.2.3,60.05944685966521,
stim2/pa-20.wav,,,,,,,,,4,9,77,13,,,,,,,,,,,,,,,,,,,,,,,,,,,,,,,,,,,225.01081559993327,225.42613419983536,225.50953326015733,None,right,0.45929160015657544,225.50965399993584,None,225.50965399993584,None,225.50965399993584,None,,,01,d,2020_Oct_21_1853,2_afc_span,2020.2.3,60.05944685966521,
stim2/pa+20.wav,,,,,,,,,4,10,78,3,,,,,,,,,,,,,,,,,,,,,,,,,,,,,,,,,,,225.9976415997371,226.40961490012705,226.49287226018495,None,left,0.6409215000458062,226.4930512998253,None,226.4930512998253,None,226.4930512998253,None,,,01,d,2020_Oct_21_1853,2_afc_span,2020.2.3,60.05944685966521,
stim2/pa-25.wav,,,,,,,,,4,11,79,14,,,,,,,,,,,,,,,,,,,,,,,,,,,,,,,,,,,227.15936759999022,227.55952609982342,227.65945256003178,None,right,0.53701790003106,227.65918269986287,None,227.65918269986287,None,227.65918269986287,None,,,01,d,2020_Oct_21_1853,2_afc_span,2020.2.3,60.05944685966521,
stim2/pa+35.wav,,,,,,,,,4,12,80,6,,,,,,,,,,,,,,,,,,,,,,,,,,,,,,,,,,,228.22602220019326,228.62603010004386,228.70937315993942,None,left,1.3136261999607086,228.70949489995837,None,228.70949489995837,None,228.70949489995837,None,,,01,d,2020_Oct_21_1853,2_afc_span,2020.2.3,60.05944685966521,
stim2/pa-15.wav,,,,,,,,,4,13,81,12,,,,,,,,,,,,,,,,,,,,,,,,,,,,,,,,,,,230.04268109984696,230.44259470002726,230.5261466602329,None,right,0.4179322998970747,230.52616429980844,None,230.52616429980844,None,230.52616429980844,None,,,01,d,2020_Oct_21_1853,2_afc_span,2020.2.3,60.05944685966521,
stim2/pa+10.wav,,,,,,,,,4,14,82,1,,,,,,,,,,,,,,,,,,,,,,,,,,,,,,,,,,,230.9621600001119,231.37616570014507,231.45921335988677,None,left,0.5263681998476386,231.45933709992096,None,231.45933709992096,None,231.45933709992096,None,,,01,d,2020_Oct_21_1853,2_afc_span,2020.2.3,60.05944685966521,
stim2/pa+15.wav,,,,,,,,,4,15,83,2,,,,,,,,,,,,,,,,,,,,,,,,,,,,,,,,,,,232.00922109978274,232.4090192001313,232.4924441600684,None,right,0.7197993001900613,232.49247850012034,None,232.49247850012034,None,232.49247850012034,None,,,01,d,2020_Oct_21_1853,2_afc_span,2020.2.3,60.05944685966521,
stim2/pa+50.wav,,,,,,,,,4,16,84,9,,,,,,,,,,,,,,,,,,,,,,,,,,,,,,,,,,,233.2458723001182,233.65924979979172,233.74221856021322,None,left,0.7849030001088977,233.74258559988812,None,233.74258559988812,None,233.74258559988812,None,,,01,d,2020_Oct_21_1853,2_afc_span,2020.2.3,60.05944685966521,
,,,,,,,,,,,,,,,,,,,,,,,,,,,,,,,,,,,,,,,,,,,,,,,,,,,,,,,,,,,234.63071849988773,None,,,,,,,
