resp.keys,resp.rt,trials.thisRepN,trials.thisTrialN,trials.thisN,trials.thisIndex,trials.ran,stimuli,participant,date,expName,psychopyVersion,OS,frameRate,gotResponse.keys,gotResponse.rt,resp_2.keys,resp_2.rt,trials_2.thisRepN,trials_2.thisTrialN,trials_2.thisN,trials_2.thisIndex,trials_2.ran,key_resp_3.keys,key_resp_3.rt,trials_4.thisRepN,trials_4.thisTrialN,trials_4.thisN,trials_4.thisIndex,trials_4.ran,resp_3.keys,resp_3.rt,trials_3.thisRepN,trials_3.thisTrialN,trials_3.thisN,trials_3.thisIndex,trials_3.ran,key_resp_2.keys,key_resp_2.rt,trials_5.thisRepN,trials_5.thisTrialN,trials_5.thisN,trials_5.thisIndex,trials_5.ran,key_resp.keys,key_resp.rt
right,6.0202,0,0,0,1,1,stim/VC_11.wav,5ef34cc943115906d6aa397f,2020-12-17_21h53.19.417,2_afc_fren,2020.2.3,Win32,60,,,,,,,,,,,,,,,,,,,,,,,,,,,,,,,,
left,0.8853,0,1,1,0,1,stim/VC_01.wav,5ef34cc943115906d6aa397f,2020-12-17_21h53.19.417,2_afc_fren,2020.2.3,Win32,60,,,,,,,,,,,,,,,,,,,,,,,,,,,,,,,,
,,,,,,,stim/VC_10.wav,5ef34cc943115906d6aa397f,2020-12-17_21h53.19.417,2_afc_fren,2020.2.3,Win32,60,space,8.1948,right,0.7836,0,0,0,9,1,,,,,,,,,,,,,,,,,,,,,,,
,,,,,,,stim/VC_08.wav,5ef34cc943115906d6aa397f,2020-12-17_21h53.19.417,2_afc_fren,2020.2.3,Win32,60,,,right,0.7014,0,1,1,7,1,,,,,,,,,,,,,,,,,,,,,,,
,,,,,,,stim/VC_05.wav,5ef34cc943115906d6aa397f,2020-12-17_21h53.19.417,2_afc_fren,2020.2.3,Win32,60,,,left,0.9353,0,2,2,4,1,,,,,,,,,,,,,,,,,,,,,,,
,,,,,,,stim/VC_02.wav,5ef34cc943115906d6aa397f,2020-12-17_21h53.19.417,2_afc_fren,2020.2.3,Win32,60,,,right,1.1753,0,3,3,1,1,,,,,,,,,,,,,,,,,,,,,,,
,,,,,,,stim/VC_11.wav,5ef34cc943115906d6aa397f,2020-12-17_21h53.19.417,2_afc_fren,2020.2.3,Win32,60,,,right,0.6846,0,4,4,10,1,,,,,,,,,,,,,,,,,,,,,,,
,,,,,,,stim/VC_06.wav,5ef34cc943115906d6aa397f,2020-12-17_21h53.19.417,2_afc_fren,2020.2.3,Win32,60,,,left,0.8451,0,5,5,5,1,,,,,,,,,,,,,,,,,,,,,,,
,,,,,,,stim/VC_01.wav,5ef34cc943115906d6aa397f,2020-12-17_21h53.19.417,2_afc_fren,2020.2.3,Win32,60,,,left,0.6883,0,6,6,0,1,,,,,,,,,,,,,,,,,,,,,,,
,,,,,,,stim/VC_09.wav,5ef34cc943115906d6aa397f,2020-12-17_21h53.19.417,2_afc_fren,2020.2.3,Win32,60,,,right,0.5859,0,7,7,8,1,,,,,,,,,,,,,,,,,,,,,,,
,,,,,,,stim/VC_07.wav,5ef34cc943115906d6aa397f,2020-12-17_21h53.19.417,2_afc_fren,2020.2.3,Win32,60,,,right,0.5772,0,8,8,6,1,,,,,,,,,,,,,,,,,,,,,,,
,,,,,,,stim/VC_04.wav,5ef34cc943115906d6aa397f,2020-12-17_21h53.19.417,2_afc_fren,2020.2.3,Win32,60,,,left,0.905,0,9,9,3,1,,,,,,,,,,,,,,,,,,,,,,,
,,,,,,,stim/VC_03.wav,5ef34cc943115906d6aa397f,2020-12-17_21h53.19.417,2_afc_fren,2020.2.3,Win32,60,,,left,0.6851,0,10,10,2,1,,,,,,,,,,,,,,,,,,,,,,,
,,,,,,,stim/VC_08.wav,5ef34cc943115906d6aa397f,2020-12-17_21h53.19.417,2_afc_fren,2020.2.3,Win32,60,,,right,0.473,1,0,11,7,1,,,,,,,,,,,,,,,,,,,,,,,
,,,,,,,stim/VC_07.wav,5ef34cc943115906d6aa397f,2020-12-17_21h53.19.417,2_afc_fren,2020.2.3,Win32,60,,,right,0.6017,1,1,12,6,1,,,,,,,,,,,,,,,,,,,,,,,
,,,,,,,stim/VC_06.wav,5ef34cc943115906d6aa397f,2020-12-17_21h53.19.417,2_afc_fren,2020.2.3,Win32,60,,,right,0.641,1,2,13,5,1,,,,,,,,,,,,,,,,,,,,,,,
,,,,,,,stim/VC_10.wav,5ef34cc943115906d6aa397f,2020-12-17_21h53.19.417,2_afc_fren,2020.2.3,Win32,60,,,right,0.8058,1,3,14,9,1,,,,,,,,,,,,,,,,,,,,,,,
,,,,,,,stim/VC_11.wav,5ef34cc943115906d6aa397f,2020-12-17_21h53.19.417,2_afc_fren,2020.2.3,Win32,60,,,right,0.5474,1,4,15,10,1,,,,,,,,,,,,,,,,,,,,,,,
,,,,,,,stim/VC_03.wav,5ef34cc943115906d6aa397f,2020-12-17_21h53.19.417,2_afc_fren,2020.2.3,Win32,60,,,left,0.5392,1,5,16,2,1,,,,,,,,,,,,,,,,,,,,,,,
,,,,,,,stim/VC_05.wav,5ef34cc943115906d6aa397f,2020-12-17_21h53.19.417,2_afc_fren,2020.2.3,Win32,60,,,left,0.6181,1,6,17,4,1,,,,,,,,,,,,,,,,,,,,,,,
,,,,,,,stim/VC_09.wav,5ef34cc943115906d6aa397f,2020-12-17_21h53.19.417,2_afc_fren,2020.2.3,Win32,60,,,right,0.6675,1,7,18,8,1,,,,,,,,,,,,,,,,,,,,,,,
,,,,,,,stim/VC_02.wav,5ef34cc943115906d6aa397f,2020-12-17_21h53.19.417,2_afc_fren,2020.2.3,Win32,60,,,left,0.5456,1,8,19,1,1,,,,,,,,,,,,,,,,,,,,,,,
,,,,,,,stim/VC_04.wav,5ef34cc943115906d6aa397f,2020-12-17_21h53.19.417,2_afc_fren,2020.2.3,Win32,60,,,left,0.585,1,9,20,3,1,,,,,,,,,,,,,,,,,,,,,,,
,,,,,,,stim/VC_01.wav,5ef34cc943115906d6aa397f,2020-12-17_21h53.19.417,2_afc_fren,2020.2.3,Win32,60,,,left,0.5683,1,10,21,0,1,,,,,,,,,,,,,,,,,,,,,,,
,,,,,,,stim/VC_07.wav,5ef34cc943115906d6aa397f,2020-12-17_21h53.19.417,2_afc_fren,2020.2.3,Win32,60,,,right,0.5347,2,0,22,6,1,,,,,,,,,,,,,,,,,,,,,,,
,,,,,,,stim/VC_10.wav,5ef34cc943115906d6aa397f,2020-12-17_21h53.19.417,2_afc_fren,2020.2.3,Win32,60,,,right,0.7187,2,1,23,9,1,,,,,,,,,,,,,,,,,,,,,,,
,,,,,,,stim/VC_11.wav,5ef34cc943115906d6aa397f,2020-12-17_21h53.19.417,2_afc_fren,2020.2.3,Win32,60,,,right,0.5858,2,2,24,10,1,,,,,,,,,,,,,,,,,,,,,,,
,,,,,,,stim/VC_04.wav,5ef34cc943115906d6aa397f,2020-12-17_21h53.19.417,2_afc_fren,2020.2.3,Win32,60,,,left,0.5248,2,3,25,3,1,,,,,,,,,,,,,,,,,,,,,,,
,,,,,,,stim/VC_06.wav,5ef34cc943115906d6aa397f,2020-12-17_21h53.19.417,2_afc_fren,2020.2.3,Win32,60,,,left,0.6175,2,4,26,5,1,,,,,,,,,,,,,,,,,,,,,,,
,,,,,,,stim/VC_03.wav,5ef34cc943115906d6aa397f,2020-12-17_21h53.19.417,2_afc_fren,2020.2.3,Win32,60,,,left,0.5531,2,5,27,2,1,,,,,,,,,,,,,,,,,,,,,,,
,,,,,,,stim/VC_01.wav,5ef34cc943115906d6aa397f,2020-12-17_21h53.19.417,2_afc_fren,2020.2.3,Win32,60,,,left,0.5746,2,6,28,0,1,,,,,,,,,,,,,,,,,,,,,,,
,,,,,,,stim/VC_09.wav,5ef34cc943115906d6aa397f,2020-12-17_21h53.19.417,2_afc_fren,2020.2.3,Win32,60,,,right,0.6183,2,7,29,8,1,,,,,,,,,,,,,,,,,,,,,,,
,,,,,,,stim/VC_08.wav,5ef34cc943115906d6aa397f,2020-12-17_21h53.19.417,2_afc_fren,2020.2.3,Win32,60,,,right,0.5723,2,8,30,7,1,,,,,,,,,,,,,,,,,,,,,,,
,,,,,,,stim/VC_05.wav,5ef34cc943115906d6aa397f,2020-12-17_21h53.19.417,2_afc_fren,2020.2.3,Win32,60,,,left,0.9766,2,9,31,4,1,,,,,,,,,,,,,,,,,,,,,,,
,,,,,,,stim/VC_02.wav,5ef34cc943115906d6aa397f,2020-12-17_21h53.19.417,2_afc_fren,2020.2.3,Win32,60,,,left,0.5297,2,10,32,1,1,,,,,,,,,,,,,,,,,,,,,,,
,,,,,,,stim/VC_06.wav,5ef34cc943115906d6aa397f,2020-12-17_21h53.19.417,2_afc_fren,2020.2.3,Win32,60,,,right,1.1848,,,,,,7,6.0546,0,0,0,5,1,,,,,,,,,,,,,,,,
,,,,,,,stim/VC_10.wav,5ef34cc943115906d6aa397f,2020-12-17_21h53.19.417,2_afc_fren,2020.2.3,Win32,60,,,right,0.5757,,,,,,,,0,1,1,9,1,,,,,,,,,,,,,,,,
,,,,,,,stim/VC_08.wav,5ef34cc943115906d6aa397f,2020-12-17_21h53.19.417,2_afc_fren,2020.2.3,Win32,60,,,right,0.4873,,,,,,,,0,2,2,7,1,,,,,,,,,,,,,,,,
,,,,,,,stim/VC_11.wav,5ef34cc943115906d6aa397f,2020-12-17_21h53.19.417,2_afc_fren,2020.2.3,Win32,60,,,right,0.4579,,,,,,,,0,3,3,10,1,,,,,,,,,,,,,,,,
,,,,,,,stim/VC_01.wav,5ef34cc943115906d6aa397f,2020-12-17_21h53.19.417,2_afc_fren,2020.2.3,Win32,60,,,left,0.6287,,,,,,,,0,4,4,0,1,,,,,,,,,,,,,,,,
,,,,,,,stim/VC_07.wav,5ef34cc943115906d6aa397f,2020-12-17_21h53.19.417,2_afc_fren,2020.2.3,Win32,60,,,right,0.6641,,,,,,,,0,5,5,6,1,,,,,,,,,,,,,,,,
,,,,,,,stim/VC_04.wav,5ef34cc943115906d6aa397f,2020-12-17_21h53.19.417,2_afc_fren,2020.2.3,Win32,60,,,right,0.5609,,,,,,,,0,6,6,3,1,,,,,,,,,,,,,,,,
,,,,,,,stim/VC_09.wav,5ef34cc943115906d6aa397f,2020-12-17_21h53.19.417,2_afc_fren,2020.2.3,Win32,60,,,right,0.5518,,,,,,,,0,7,7,8,1,,,,,,,,,,,,,,,,
,,,,,,,stim/VC_05.wav,5ef34cc943115906d6aa397f,2020-12-17_21h53.19.417,2_afc_fren,2020.2.3,Win32,60,,,right,0.3847,,,,,,,,0,8,8,4,1,,,,,,,,,,,,,,,,
,,,,,,,stim/VC_02.wav,5ef34cc943115906d6aa397f,2020-12-17_21h53.19.417,2_afc_fren,2020.2.3,Win32,60,,,left,0.6371,,,,,,,,0,9,9,1,1,,,,,,,,,,,,,,,,
,,,,,,,stim/VC_03.wav,5ef34cc943115906d6aa397f,2020-12-17_21h53.19.417,2_afc_fren,2020.2.3,Win32,60,,,left,0.4832,,,,,,,,0,10,10,2,1,,,,,,,,,,,,,,,,
,,,,,,,stim/VC_09.wav,5ef34cc943115906d6aa397f,2020-12-17_21h53.19.417,2_afc_fren,2020.2.3,Win32,60,,,right,0.6282,,,,,,,,1,0,11,8,1,,,,,,,,,,,,,,,,
,,,,,,,stim/VC_06.wav,5ef34cc943115906d6aa397f,2020-12-17_21h53.19.417,2_afc_fren,2020.2.3,Win32,60,,,right,0.6632,,,,,,,,1,1,12,5,1,,,,,,,,,,,,,,,,
,,,,,,,stim/VC_01.wav,5ef34cc943115906d6aa397f,2020-12-17_21h53.19.417,2_afc_fren,2020.2.3,Win32,60,,,left,0.601,,,,,,,,1,2,13,0,1,,,,,,,,,,,,,,,,
,,,,,,,stim/VC_08.wav,5ef34cc943115906d6aa397f,2020-12-17_21h53.19.417,2_afc_fren,2020.2.3,Win32,60,,,right,0.5351,,,,,,,,1,3,14,7,1,,,,,,,,,,,,,,,,
,,,,,,,stim/VC_04.wav,5ef34cc943115906d6aa397f,2020-12-17_21h53.19.417,2_afc_fren,2020.2.3,Win32,60,,,left,0.7439,,,,,,,,1,4,15,3,1,,,,,,,,,,,,,,,,
,,,,,,,stim/VC_02.wav,5ef34cc943115906d6aa397f,2020-12-17_21h53.19.417,2_afc_fren,2020.2.3,Win32,60,,,left,0.5786,,,,,,,,1,5,16,1,1,,,,,,,,,,,,,,,,
,,,,,,,stim/VC_07.wav,5ef34cc943115906d6aa397f,2020-12-17_21h53.19.417,2_afc_fren,2020.2.3,Win32,60,,,right,0.5902,,,,,,,,1,6,17,6,1,,,,,,,,,,,,,,,,
,,,,,,,stim/VC_03.wav,5ef34cc943115906d6aa397f,2020-12-17_21h53.19.417,2_afc_fren,2020.2.3,Win32,60,,,left,0.6629,,,,,,,,1,7,18,2,1,,,,,,,,,,,,,,,,
,,,,,,,stim/VC_05.wav,5ef34cc943115906d6aa397f,2020-12-17_21h53.19.417,2_afc_fren,2020.2.3,Win32,60,,,left,1.0851,,,,,,,,1,8,19,4,1,,,,,,,,,,,,,,,,
,,,,,,,stim/VC_10.wav,5ef34cc943115906d6aa397f,2020-12-17_21h53.19.417,2_afc_fren,2020.2.3,Win32,60,,,right,0.5782,,,,,,,,1,9,20,9,1,,,,,,,,,,,,,,,,
,,,,,,,stim/VC_11.wav,5ef34cc943115906d6aa397f,2020-12-17_21h53.19.417,2_afc_fren,2020.2.3,Win32,60,,,right,0.7525,,,,,,,,1,10,21,10,1,,,,,,,,,,,,,,,,
,,,,,,,stim2/pa-30.wav,5ef34cc943115906d6aa397f,2020-12-17_21h53.19.417,2_afc_fren,2020.2.3,Win32,60,,,,,,,,,,,,,,,,,right,1.069,0,0,0,15,1,,,,,,,,,
,,,,,,,stim2/pa-05.wav,5ef34cc943115906d6aa397f,2020-12-17_21h53.19.417,2_afc_fren,2020.2.3,Win32,60,,,,,,,,,,,,,,,,,right,0.551,0,1,1,10,1,,,,,,,,,
,,,,,,,stim2/pa-20.wav,5ef34cc943115906d6aa397f,2020-12-17_21h53.19.417,2_afc_fren,2020.2.3,Win32,60,,,,,,,,,,,,,,,,,right,0.506,0,2,2,13,1,,,,,,,,,
,,,,,,,stim2/pa-25.wav,5ef34cc943115906d6aa397f,2020-12-17_21h53.19.417,2_afc_fren,2020.2.3,Win32,60,,,,,,,,,,,,,,,,,right,0.5213,0,3,3,14,1,,,,,,,,,
,,,,,,,stim2/pa+10.wav,5ef34cc943115906d6aa397f,2020-12-17_21h53.19.417,2_afc_fren,2020.2.3,Win32,60,,,,,,,,,,,,,,,,,right,0.5184,0,4,4,1,1,,,,,,,,,
,,,,,,,stim2/pa+05.wav,5ef34cc943115906d6aa397f,2020-12-17_21h53.19.417,2_afc_fren,2020.2.3,Win32,60,,,,,,,,,,,,,,,,,right,0.5226,0,5,5,0,1,,,,,,,,,
,,,,,,,stim2/pa-35.wav,5ef34cc943115906d6aa397f,2020-12-17_21h53.19.417,2_afc_fren,2020.2.3,Win32,60,,,,,,,,,,,,,,,,,right,0.4675,0,6,6,16,1,,,,,,,,,
,,,,,,,stim2/pa-10.wav,5ef34cc943115906d6aa397f,2020-12-17_21h53.19.417,2_afc_fren,2020.2.3,Win32,60,,,,,,,,,,,,,,,,,right,0.4844,0,7,7,11,1,,,,,,,,,
,,,,,,,stim2/pa+25.wav,5ef34cc943115906d6aa397f,2020-12-17_21h53.19.417,2_afc_fren,2020.2.3,Win32,60,,,,,,,,,,,,,,,,,right,0.5762,0,8,8,4,1,,,,,,,,,
,,,,,,,stim2/pa+35.wav,5ef34cc943115906d6aa397f,2020-12-17_21h53.19.417,2_afc_fren,2020.2.3,Win32,60,,,,,,,,,,,,,,,,,right,0.5682,0,9,9,6,1,,,,,,,,,
,,,,,,,stim2/pa+45.wav,5ef34cc943115906d6aa397f,2020-12-17_21h53.19.417,2_afc_fren,2020.2.3,Win32,60,,,,,,,,,,,,,,,,,right,0.5843,0,10,10,8,1,,,,,,,,,
,,,,,,,stim2/pa+50.wav,5ef34cc943115906d6aa397f,2020-12-17_21h53.19.417,2_afc_fren,2020.2.3,Win32,60,,,,,,,,,,,,,,,,,right,0.5459,0,11,11,9,1,,,,,,,,,
,,,,,,,stim2/pa-15.wav,5ef34cc943115906d6aa397f,2020-12-17_21h53.19.417,2_afc_fren,2020.2.3,Win32,60,,,,,,,,,,,,,,,,,right,0.5393,0,12,12,12,1,,,,,,,,,
,,,,,,,stim2/pa+20.wav,5ef34cc943115906d6aa397f,2020-12-17_21h53.19.417,2_afc_fren,2020.2.3,Win32,60,,,,,,,,,,,,,,,,,right,0.5958,0,13,13,3,1,,,,,,,,,
,,,,,,,stim2/pa+15.wav,5ef34cc943115906d6aa397f,2020-12-17_21h53.19.417,2_afc_fren,2020.2.3,Win32,60,,,,,,,,,,,,,,,,,right,0.5746,0,14,14,2,1,,,,,,,,,
,,,,,,,stim2/pa+40.wav,5ef34cc943115906d6aa397f,2020-12-17_21h53.19.417,2_afc_fren,2020.2.3,Win32,60,,,,,,,,,,,,,,,,,right,0.5844,0,15,15,7,1,,,,,,,,,
,,,,,,,stim2/pa+30.wav,5ef34cc943115906d6aa397f,2020-12-17_21h53.19.417,2_afc_fren,2020.2.3,Win32,60,,,,,,,,,,,,,,,,,right,0.5516,0,16,16,5,1,,,,,,,,,
,,,,,,,stim2/pa-15.wav,5ef34cc943115906d6aa397f,2020-12-17_21h53.19.417,2_afc_fren,2020.2.3,Win32,60,,,,,,,,,,,,,,,,,right,0.5847,1,0,17,12,1,,,,,,,,,
,,,,,,,stim2/pa-25.wav,5ef34cc943115906d6aa397f,2020-12-17_21h53.19.417,2_afc_fren,2020.2.3,Win32,60,,,,,,,,,,,,,,,,,right,0.545,1,1,18,14,1,,,,,,,,,
,,,,,,,stim2/pa+10.wav,5ef34cc943115906d6aa397f,2020-12-17_21h53.19.417,2_afc_fren,2020.2.3,Win32,60,,,,,,,,,,,,,,,,,right,0.5297,1,2,19,1,1,,,,,,,,,
,,,,,,,stim2/pa-10.wav,5ef34cc943115906d6aa397f,2020-12-17_21h53.19.417,2_afc_fren,2020.2.3,Win32,60,,,,,,,,,,,,,,,,,right,0.4928,1,3,20,11,1,,,,,,,,,
,,,,,,,stim2/pa+40.wav,5ef34cc943115906d6aa397f,2020-12-17_21h53.19.417,2_afc_fren,2020.2.3,Win32,60,,,,,,,,,,,,,,,,,right,0.5234,1,4,21,7,1,,,,,,,,,
,,,,,,,stim2/pa+20.wav,5ef34cc943115906d6aa397f,2020-12-17_21h53.19.417,2_afc_fren,2020.2.3,Win32,60,,,,,,,,,,,,,,,,,right,0.471,1,5,22,3,1,,,,,,,,,
,,,,,,,stim2/pa+15.wav,5ef34cc943115906d6aa397f,2020-12-17_21h53.19.417,2_afc_fren,2020.2.3,Win32,60,,,,,,,,,,,,,,,,,right,0.5072,1,6,23,2,1,,,,,,,,,
,,,,,,,stim2/pa-05.wav,5ef34cc943115906d6aa397f,2020-12-17_21h53.19.417,2_afc_fren,2020.2.3,Win32,60,,,,,,,,,,,,,,,,,right,0.536,1,7,24,10,1,,,,,,,,,
,,,,,,,stim2/pa+50.wav,5ef34cc943115906d6aa397f,2020-12-17_21h53.19.417,2_afc_fren,2020.2.3,Win32,60,,,,,,,,,,,,,,,,,right,0.5011,1,8,25,9,1,,,,,,,,,
,,,,,,,stim2/pa+05.wav,5ef34cc943115906d6aa397f,2020-12-17_21h53.19.417,2_afc_fren,2020.2.3,Win32,60,,,,,,,,,,,,,,,,,right,0.502,1,9,26,0,1,,,,,,,,,
,,,,,,,stim2/pa+35.wav,5ef34cc943115906d6aa397f,2020-12-17_21h53.19.417,2_afc_fren,2020.2.3,Win32,60,,,,,,,,,,,,,,,,,right,0.5346,1,10,27,6,1,,,,,,,,,
,,,,,,,stim2/pa-35.wav,5ef34cc943115906d6aa397f,2020-12-17_21h53.19.417,2_afc_fren,2020.2.3,Win32,60,,,,,,,,,,,,,,,,,right,0.5346,1,11,28,16,1,,,,,,,,,
,,,,,,,stim2/pa-20.wav,5ef34cc943115906d6aa397f,2020-12-17_21h53.19.417,2_afc_fren,2020.2.3,Win32,60,,,,,,,,,,,,,,,,,right,0.541,1,12,29,13,1,,,,,,,,,
,,,,,,,stim2/pa+45.wav,5ef34cc943115906d6aa397f,2020-12-17_21h53.19.417,2_afc_fren,2020.2.3,Win32,60,,,,,,,,,,,,,,,,,right,0.5451,1,13,30,8,1,,,,,,,,,
,,,,,,,stim2/pa+25.wav,5ef34cc943115906d6aa397f,2020-12-17_21h53.19.417,2_afc_fren,2020.2.3,Win32,60,,,,,,,,,,,,,,,,,right,0.5848,1,14,31,4,1,,,,,,,,,
,,,,,,,stim2/pa+30.wav,5ef34cc943115906d6aa397f,2020-12-17_21h53.19.417,2_afc_fren,2020.2.3,Win32,60,,,,,,,,,,,,,,,,,right,0.5551,1,15,32,5,1,,,,,,,,,
,,,,,,,stim2/pa-30.wav,5ef34cc943115906d6aa397f,2020-12-17_21h53.19.417,2_afc_fren,2020.2.3,Win32,60,,,,,,,,,,,,,,,,,right,0.5948,1,16,33,15,1,,,,,,,,,
,,,,,,,stim2/pa-30.wav,5ef34cc943115906d6aa397f,2020-12-17_21h53.19.417,2_afc_fren,2020.2.3,Win32,60,,,,,,,,,,,,,,,,,right,0.5676,2,0,34,15,1,,,,,,,,,
,,,,,,,stim2/pa+45.wav,5ef34cc943115906d6aa397f,2020-12-17_21h53.19.417,2_afc_fren,2020.2.3,Win32,60,,,,,,,,,,,,,,,,,right,0.5532,2,1,35,8,1,,,,,,,,,
,,,,,,,stim2/pa+05.wav,5ef34cc943115906d6aa397f,2020-12-17_21h53.19.417,2_afc_fren,2020.2.3,Win32,60,,,,,,,,,,,,,,,,,right,0.559,2,2,36,0,1,,,,,,,,,
,,,,,,,stim2/pa+40.wav,5ef34cc943115906d6aa397f,2020-12-17_21h53.19.417,2_afc_fren,2020.2.3,Win32,60,,,,,,,,,,,,,,,,,right,0.5795,2,3,37,7,1,,,,,,,,,
,,,,,,,stim2/pa-05.wav,5ef34cc943115906d6aa397f,2020-12-17_21h53.19.417,2_afc_fren,2020.2.3,Win32,60,,,,,,,,,,,,,,,,,right,0.563,2,4,38,10,1,,,,,,,,,
,,,,,,,stim2/pa-10.wav,5ef34cc943115906d6aa397f,2020-12-17_21h53.19.417,2_afc_fren,2020.2.3,Win32,60,,,,,,,,,,,,,,,,,right,0.5683,2,5,39,11,1,,,,,,,,,
,,,,,,,stim2/pa-15.wav,5ef34cc943115906d6aa397f,2020-12-17_21h53.19.417,2_afc_fren,2020.2.3,Win32,60,,,,,,,,,,,,,,,,,right,0.5944,2,6,40,12,1,,,,,,,,,
,,,,,,,stim2/pa+10.wav,5ef34cc943115906d6aa397f,2020-12-17_21h53.19.417,2_afc_fren,2020.2.3,Win32,60,,,,,,,,,,,,,,,,,right,0.5228,2,7,41,1,1,,,,,,,,,
,,,,,,,stim2/pa+20.wav,5ef34cc943115906d6aa397f,2020-12-17_21h53.19.417,2_afc_fren,2020.2.3,Win32,60,,,,,,,,,,,,,,,,,right,0.5098,2,8,42,3,1,,,,,,,,,
,,,,,,,stim2/pa+35.wav,5ef34cc943115906d6aa397f,2020-12-17_21h53.19.417,2_afc_fren,2020.2.3,Win32,60,,,,,,,,,,,,,,,,,right,0.5754,2,9,43,6,1,,,,,,,,,
,,,,,,,stim2/pa+15.wav,5ef34cc943115906d6aa397f,2020-12-17_21h53.19.417,2_afc_fren,2020.2.3,Win32,60,,,,,,,,,,,,,,,,,right,0.5536,2,10,44,2,1,,,,,,,,,
,,,,,,,stim2/pa+30.wav,5ef34cc943115906d6aa397f,2020-12-17_21h53.19.417,2_afc_fren,2020.2.3,Win32,60,,,,,,,,,,,,,,,,,right,0.6009,2,11,45,5,1,,,,,,,,,
,,,,,,,stim2/pa+50.wav,5ef34cc943115906d6aa397f,2020-12-17_21h53.19.417,2_afc_fren,2020.2.3,Win32,60,,,,,,,,,,,,,,,,,right,0.5926,2,12,46,9,1,,,,,,,,,
,,,,,,,stim2/pa-35.wav,5ef34cc943115906d6aa397f,2020-12-17_21h53.19.417,2_afc_fren,2020.2.3,Win32,60,,,,,,,,,,,,,,,,,right,0.568,2,13,47,16,1,,,,,,,,,
,,,,,,,stim2/pa+25.wav,5ef34cc943115906d6aa397f,2020-12-17_21h53.19.417,2_afc_fren,2020.2.3,Win32,60,,,,,,,,,,,,,,,,,right,0.5364,2,14,48,4,1,,,,,,,,,
,,,,,,,stim2/pa-25.wav,5ef34cc943115906d6aa397f,2020-12-17_21h53.19.417,2_afc_fren,2020.2.3,Win32,60,,,,,,,,,,,,,,,,,right,0.6012,2,15,49,14,1,,,,,,,,,
,,,,,,,stim2/pa-20.wav,5ef34cc943115906d6aa397f,2020-12-17_21h53.19.417,2_afc_fren,2020.2.3,Win32,60,,,,,,,,,,,,,,,,,right,0.5513,2,16,50,13,1,,,,,,,,,
,,,,,,,stim2/pa-10.wav,5ef34cc943115906d6aa397f,2020-12-17_21h53.19.417,2_afc_fren,2020.2.3,Win32,60,,,,,,,,,,,,,,,,,right,0.6248,,,,,,z,2.7433,0,0,0,11,1,,
,,,,,,,stim2/pa-30.wav,5ef34cc943115906d6aa397f,2020-12-17_21h53.19.417,2_afc_fren,2020.2.3,Win32,60,,,,,,,,,,,,,,,,,right,0.5767,,,,,,,,0,1,1,15,1,,
,,,,,,,stim2/pa+25.wav,5ef34cc943115906d6aa397f,2020-12-17_21h53.19.417,2_afc_fren,2020.2.3,Win32,60,,,,,,,,,,,,,,,,,right,0.6019,,,,,,,,0,2,2,4,1,,
,,,,,,,stim2/pa-25.wav,5ef34cc943115906d6aa397f,2020-12-17_21h53.19.417,2_afc_fren,2020.2.3,Win32,60,,,,,,,,,,,,,,,,,right,0.534,,,,,,,,0,3,3,14,1,,
,,,,,,,stim2/pa+35.wav,5ef34cc943115906d6aa397f,2020-12-17_21h53.19.417,2_afc_fren,2020.2.3,Win32,60,,,,,,,,,,,,,,,,,right,0.5674,,,,,,,,0,4,4,6,1,,
,,,,,,,stim2/pa-20.wav,5ef34cc943115906d6aa397f,2020-12-17_21h53.19.417,2_afc_fren,2020.2.3,Win32,60,,,,,,,,,,,,,,,,,right,0.5679,,,,,,,,0,5,5,13,1,,
,,,,,,,stim2/pa-15.wav,5ef34cc943115906d6aa397f,2020-12-17_21h53.19.417,2_afc_fren,2020.2.3,Win32,60,,,,,,,,,,,,,,,,,right,0.5738,,,,,,,,0,6,6,12,1,,
,,,,,,,stim2/pa+15.wav,5ef34cc943115906d6aa397f,2020-12-17_21h53.19.417,2_afc_fren,2020.2.3,Win32,60,,,,,,,,,,,,,,,,,right,0.6348,,,,,,,,0,7,7,2,1,,
,,,,,,,stim2/pa+45.wav,5ef34cc943115906d6aa397f,2020-12-17_21h53.19.417,2_afc_fren,2020.2.3,Win32,60,,,,,,,,,,,,,,,,,right,0.6504,,,,,,,,0,8,8,8,1,,
,,,,,,,stim2/pa-05.wav,5ef34cc943115906d6aa397f,2020-12-17_21h53.19.417,2_afc_fren,2020.2.3,Win32,60,,,,,,,,,,,,,,,,,right,0.5938,,,,,,,,0,9,9,10,1,,
,,,,,,,stim2/pa+40.wav,5ef34cc943115906d6aa397f,2020-12-17_21h53.19.417,2_afc_fren,2020.2.3,Win32,60,,,,,,,,,,,,,,,,,right,0.5868,,,,,,,,0,10,10,7,1,,
,,,,,,,stim2/pa+30.wav,5ef34cc943115906d6aa397f,2020-12-17_21h53.19.417,2_afc_fren,2020.2.3,Win32,60,,,,,,,,,,,,,,,,,right,0.589,,,,,,,,0,11,11,5,1,,
,,,,,,,stim2/pa-35.wav,5ef34cc943115906d6aa397f,2020-12-17_21h53.19.417,2_afc_fren,2020.2.3,Win32,60,,,,,,,,,,,,,,,,,right,0.6202,,,,,,,,0,12,12,16,1,,
,,,,,,,stim2/pa+10.wav,5ef34cc943115906d6aa397f,2020-12-17_21h53.19.417,2_afc_fren,2020.2.3,Win32,60,,,,,,,,,,,,,,,,,right,0.594,,,,,,,,0,13,13,1,1,,
,,,,,,,stim2/pa+50.wav,5ef34cc943115906d6aa397f,2020-12-17_21h53.19.417,2_afc_fren,2020.2.3,Win32,60,,,,,,,,,,,,,,,,,right,0.603,,,,,,,,0,14,14,9,1,,
,,,,,,,stim2/pa+05.wav,5ef34cc943115906d6aa397f,2020-12-17_21h53.19.417,2_afc_fren,2020.2.3,Win32,60,,,,,,,,,,,,,,,,,right,0.6228,,,,,,,,0,15,15,0,1,,
,,,,,,,stim2/pa+20.wav,5ef34cc943115906d6aa397f,2020-12-17_21h53.19.417,2_afc_fren,2020.2.3,Win32,60,,,,,,,,,,,,,,,,,right,0.5849,,,,,,,,0,16,16,3,1,,
,,,,,,,stim2/pa-20.wav,5ef34cc943115906d6aa397f,2020-12-17_21h53.19.417,2_afc_fren,2020.2.3,Win32,60,,,,,,,,,,,,,,,,,right,0.6029,,,,,,,,1,0,17,13,1,,
,,,,,,,stim2/pa-05.wav,5ef34cc943115906d6aa397f,2020-12-17_21h53.19.417,2_afc_fren,2020.2.3,Win32,60,,,,,,,,,,,,,,,,,right,0.6682,,,,,,,,1,1,18,10,1,,
,,,,,,,stim2/pa+30.wav,5ef34cc943115906d6aa397f,2020-12-17_21h53.19.417,2_afc_fren,2020.2.3,Win32,60,,,,,,,,,,,,,,,,,right,0.5359,,,,,,,,1,2,19,5,1,,
,,,,,,,stim2/pa+45.wav,5ef34cc943115906d6aa397f,2020-12-17_21h53.19.417,2_afc_fren,2020.2.3,Win32,60,,,,,,,,,,,,,,,,,right,0.6013,,,,,,,,1,3,20,8,1,,
,,,,,,,stim2/pa+25.wav,5ef34cc943115906d6aa397f,2020-12-17_21h53.19.417,2_afc_fren,2020.2.3,Win32,60,,,,,,,,,,,,,,,,,right,0.6184,,,,,,,,1,4,21,4,1,,
,,,,,,,stim2/pa+15.wav,5ef34cc943115906d6aa397f,2020-12-17_21h53.19.417,2_afc_fren,2020.2.3,Win32,60,,,,,,,,,,,,,,,,,right,0.5792,,,,,,,,1,5,22,2,1,,
,,,,,,,stim2/pa-35.wav,5ef34cc943115906d6aa397f,2020-12-17_21h53.19.417,2_afc_fren,2020.2.3,Win32,60,,,,,,,,,,,,,,,,,right,0.5916,,,,,,,,1,6,23,16,1,,
,,,,,,,stim2/pa-25.wav,5ef34cc943115906d6aa397f,2020-12-17_21h53.19.417,2_afc_fren,2020.2.3,Win32,60,,,,,,,,,,,,,,,,,right,0.5953,,,,,,,,1,7,24,14,1,,
,,,,,,,stim2/pa+05.wav,5ef34cc943115906d6aa397f,2020-12-17_21h53.19.417,2_afc_fren,2020.2.3,Win32,60,,,,,,,,,,,,,,,,,right,0.5843,,,,,,,,1,8,25,0,1,,
,,,,,,,stim2/pa+10.wav,5ef34cc943115906d6aa397f,2020-12-17_21h53.19.417,2_afc_fren,2020.2.3,Win32,60,,,,,,,,,,,,,,,,,right,0.5857,,,,,,,,1,9,26,1,1,,
,,,,,,,stim2/pa-15.wav,5ef34cc943115906d6aa397f,2020-12-17_21h53.19.417,2_afc_fren,2020.2.3,Win32,60,,,,,,,,,,,,,,,,,right,0.6168,,,,,,,,1,10,27,12,1,,
,,,,,,,stim2/pa+35.wav,5ef34cc943115906d6aa397f,2020-12-17_21h53.19.417,2_afc_fren,2020.2.3,Win32,60,,,,,,,,,,,,,,,,,right,0.6077,,,,,,,,1,11,28,6,1,,
,,,,,,,stim2/pa+40.wav,5ef34cc943115906d6aa397f,2020-12-17_21h53.19.417,2_afc_fren,2020.2.3,Win32,60,,,,,,,,,,,,,,,,,right,0.6066,,,,,,,,1,12,29,7,1,,
,,,,,,,stim2/pa+20.wav,5ef34cc943115906d6aa397f,2020-12-17_21h53.19.417,2_afc_fren,2020.2.3,Win32,60,,,,,,,,,,,,,,,,,right,0.6014,,,,,,,,1,13,30,3,1,,
,,,,,,,stim2/pa-10.wav,5ef34cc943115906d6aa397f,2020-12-17_21h53.19.417,2_afc_fren,2020.2.3,Win32,60,,,,,,,,,,,,,,,,,right,0.5511,,,,,,,,1,14,31,11,1,,
,,,,,,,stim2/pa-30.wav,5ef34cc943115906d6aa397f,2020-12-17_21h53.19.417,2_afc_fren,2020.2.3,Win32,60,,,,,,,,,,,,,,,,,right,0.5594,,,,,,,,1,15,32,15,1,,
,,,,,,,stim2/pa+50.wav,5ef34cc943115906d6aa397f,2020-12-17_21h53.19.417,2_afc_fren,2020.2.3,Win32,60,,,,,,,,,,,,,,,,,right,0.6018,,,,,,,,1,16,33,9,1,,
,,,,,,,,5ef34cc943115906d6aa397f,2020-12-17_21h53.19.417,2_afc_fren,2020.2.3,Win32,60,,,,,,,,,,,,,,,,,,,,,,,,,,,,,,,space,22.3026
