resp.keys,resp.rt,trials.thisRepN,trials.thisTrialN,trials.thisN,trials.thisIndex,trials.ran,stimuli,participant,date,expName,psychopyVersion,OS,frameRate,gotResponse.keys,gotResponse.rt,resp_2.keys,resp_2.rt,trials_2.thisRepN,trials_2.thisTrialN,trials_2.thisN,trials_2.thisIndex,trials_2.ran,key_resp_3.keys,key_resp_3.rt,trials_4.thisRepN,trials_4.thisTrialN,trials_4.thisN,trials_4.thisIndex,trials_4.ran,resp_3.keys,resp_3.rt,trials_3.thisRepN,trials_3.thisTrialN,trials_3.thisN,trials_3.thisIndex,trials_3.ran,key_resp_2.keys,key_resp_2.rt,trials_5.thisRepN,trials_5.thisTrialN,trials_5.thisN,trials_5.thisIndex,trials_5.ran,key_resp.keys,key_resp.rt
left,1.44385,0,0,0,0,1,stim/VC_01.wav,5d7c7425c0d7db00187b1199,2021-01-21_22h02.31.209,Hungarian_step4,2020.2.3,Win32,60,,,,,,,,,,,,,,,,,,,,,,,,,,,,,,,,
right,0.929355,0,1,1,1,1,stim/VC_11.wav,5d7c7425c0d7db00187b1199,2021-01-21_22h02.31.209,Hungarian_step4,2020.2.3,Win32,60,,,,,,,,,,,,,,,,,,,,,,,,,,,,,,,,
,,,,,,,stim/VC_09.wav,5d7c7425c0d7db00187b1199,2021-01-21_22h02.31.209,Hungarian_step4,2020.2.3,Win32,60,space,0.96298,right,1.03082,0,0,0,8,1,,,,,,,,,,,,,,,,,,,,,,,
,,,,,,,stim/VC_06.wav,5d7c7425c0d7db00187b1199,2021-01-21_22h02.31.209,Hungarian_step4,2020.2.3,Win32,60,,,right,0.750145,0,1,1,5,1,,,,,,,,,,,,,,,,,,,,,,,
,,,,,,,stim/VC_01.wav,5d7c7425c0d7db00187b1199,2021-01-21_22h02.31.209,Hungarian_step4,2020.2.3,Win32,60,,,left,0.708975,0,2,2,0,1,,,,,,,,,,,,,,,,,,,,,,,
,,,,,,,stim/VC_04.wav,5d7c7425c0d7db00187b1199,2021-01-21_22h02.31.209,Hungarian_step4,2020.2.3,Win32,60,,,right,0.69982,0,3,3,3,1,,,,,,,,,,,,,,,,,,,,,,,
,,,,,,,stim/VC_03.wav,5d7c7425c0d7db00187b1199,2021-01-21_22h02.31.209,Hungarian_step4,2020.2.3,Win32,60,,,left,0.6268,0,4,4,2,1,,,,,,,,,,,,,,,,,,,,,,,
,,,,,,,stim/VC_07.wav,5d7c7425c0d7db00187b1199,2021-01-21_22h02.31.209,Hungarian_step4,2020.2.3,Win32,60,,,right,0.596745,0,5,5,6,1,,,,,,,,,,,,,,,,,,,,,,,
,,,,,,,stim/VC_05.wav,5d7c7425c0d7db00187b1199,2021-01-21_22h02.31.209,Hungarian_step4,2020.2.3,Win32,60,,,right,0.78355,0,6,6,4,1,,,,,,,,,,,,,,,,,,,,,,,
,,,,,,,stim/VC_11.wav,5d7c7425c0d7db00187b1199,2021-01-21_22h02.31.209,Hungarian_step4,2020.2.3,Win32,60,,,right,0.547705,0,7,7,10,1,,,,,,,,,,,,,,,,,,,,,,,
,,,,,,,stim/VC_08.wav,5d7c7425c0d7db00187b1199,2021-01-21_22h02.31.209,Hungarian_step4,2020.2.3,Win32,60,,,right,0.633905,0,8,8,7,1,,,,,,,,,,,,,,,,,,,,,,,
,,,,,,,stim/VC_02.wav,5d7c7425c0d7db00187b1199,2021-01-21_22h02.31.209,Hungarian_step4,2020.2.3,Win32,60,,,left,0.506855,0,9,9,1,1,,,,,,,,,,,,,,,,,,,,,,,
,,,,,,,stim/VC_10.wav,5d7c7425c0d7db00187b1199,2021-01-21_22h02.31.209,Hungarian_step4,2020.2.3,Win32,60,,,right,0.56138,0,10,10,9,1,,,,,,,,,,,,,,,,,,,,,,,
,,,,,,,stim/VC_01.wav,5d7c7425c0d7db00187b1199,2021-01-21_22h02.31.209,Hungarian_step4,2020.2.3,Win32,60,,,left,0.566675,1,0,11,0,1,,,,,,,,,,,,,,,,,,,,,,,
,,,,,,,stim/VC_07.wav,5d7c7425c0d7db00187b1199,2021-01-21_22h02.31.209,Hungarian_step4,2020.2.3,Win32,60,,,right,0.56958,1,1,12,6,1,,,,,,,,,,,,,,,,,,,,,,,
,,,,,,,stim/VC_06.wav,5d7c7425c0d7db00187b1199,2021-01-21_22h02.31.209,Hungarian_step4,2020.2.3,Win32,60,,,right,0.605935,1,2,13,5,1,,,,,,,,,,,,,,,,,,,,,,,
,,,,,,,stim/VC_10.wav,5d7c7425c0d7db00187b1199,2021-01-21_22h02.31.209,Hungarian_step4,2020.2.3,Win32,60,,,right,0.55026,1,3,14,9,1,,,,,,,,,,,,,,,,,,,,,,,
,,,,,,,stim/VC_05.wav,5d7c7425c0d7db00187b1199,2021-01-21_22h02.31.209,Hungarian_step4,2020.2.3,Win32,60,,,right,0.900745,1,4,15,4,1,,,,,,,,,,,,,,,,,,,,,,,
,,,,,,,stim/VC_02.wav,5d7c7425c0d7db00187b1199,2021-01-21_22h02.31.209,Hungarian_step4,2020.2.3,Win32,60,,,left,0.47643,1,5,16,1,1,,,,,,,,,,,,,,,,,,,,,,,
,,,,,,,stim/VC_04.wav,5d7c7425c0d7db00187b1199,2021-01-21_22h02.31.209,Hungarian_step4,2020.2.3,Win32,60,,,right,0.804335,1,6,17,3,1,,,,,,,,,,,,,,,,,,,,,,,
,,,,,,,stim/VC_11.wav,5d7c7425c0d7db00187b1199,2021-01-21_22h02.31.209,Hungarian_step4,2020.2.3,Win32,60,,,right,0.639005,1,7,18,10,1,,,,,,,,,,,,,,,,,,,,,,,
,,,,,,,stim/VC_08.wav,5d7c7425c0d7db00187b1199,2021-01-21_22h02.31.209,Hungarian_step4,2020.2.3,Win32,60,,,right,0.57594,1,8,19,7,1,,,,,,,,,,,,,,,,,,,,,,,
,,,,,,,stim/VC_09.wav,5d7c7425c0d7db00187b1199,2021-01-21_22h02.31.209,Hungarian_step4,2020.2.3,Win32,60,,,right,0.596655,1,9,20,8,1,,,,,,,,,,,,,,,,,,,,,,,
,,,,,,,stim/VC_03.wav,5d7c7425c0d7db00187b1199,2021-01-21_22h02.31.209,Hungarian_step4,2020.2.3,Win32,60,,,left,0.55152,1,10,21,2,1,,,,,,,,,,,,,,,,,,,,,,,
,,,,,,,stim/VC_02.wav,5d7c7425c0d7db00187b1199,2021-01-21_22h02.31.209,Hungarian_step4,2020.2.3,Win32,60,,,left,0.60462,2,0,22,1,1,,,,,,,,,,,,,,,,,,,,,,,
,,,,,,,stim/VC_03.wav,5d7c7425c0d7db00187b1199,2021-01-21_22h02.31.209,Hungarian_step4,2020.2.3,Win32,60,,,left,0.591525,2,1,23,2,1,,,,,,,,,,,,,,,,,,,,,,,
,,,,,,,stim/VC_10.wav,5d7c7425c0d7db00187b1199,2021-01-21_22h02.31.209,Hungarian_step4,2020.2.3,Win32,60,,,right,0.594185,2,2,24,9,1,,,,,,,,,,,,,,,,,,,,,,,
,,,,,,,stim/VC_06.wav,5d7c7425c0d7db00187b1199,2021-01-21_22h02.31.209,Hungarian_step4,2020.2.3,Win32,60,,,right,0.789545,2,3,25,5,1,,,,,,,,,,,,,,,,,,,,,,,
,,,,,,,stim/VC_11.wav,5d7c7425c0d7db00187b1199,2021-01-21_22h02.31.209,Hungarian_step4,2020.2.3,Win32,60,,,right,0.89693,2,4,26,10,1,,,,,,,,,,,,,,,,,,,,,,,
,,,,,,,stim/VC_04.wav,5d7c7425c0d7db00187b1199,2021-01-21_22h02.31.209,Hungarian_step4,2020.2.3,Win32,60,,,left,0.633675,2,5,27,3,1,,,,,,,,,,,,,,,,,,,,,,,
,,,,,,,stim/VC_01.wav,5d7c7425c0d7db00187b1199,2021-01-21_22h02.31.209,Hungarian_step4,2020.2.3,Win32,60,,,left,0.665165,2,6,28,0,1,,,,,,,,,,,,,,,,,,,,,,,
,,,,,,,stim/VC_05.wav,5d7c7425c0d7db00187b1199,2021-01-21_22h02.31.209,Hungarian_step4,2020.2.3,Win32,60,,,left,0.826465,2,7,29,4,1,,,,,,,,,,,,,,,,,,,,,,,
,,,,,,,stim/VC_09.wav,5d7c7425c0d7db00187b1199,2021-01-21_22h02.31.209,Hungarian_step4,2020.2.3,Win32,60,,,right,0.61093,2,8,30,8,1,,,,,,,,,,,,,,,,,,,,,,,
,,,,,,,stim/VC_07.wav,5d7c7425c0d7db00187b1199,2021-01-21_22h02.31.209,Hungarian_step4,2020.2.3,Win32,60,,,right,0.676775,2,9,31,6,1,,,,,,,,,,,,,,,,,,,,,,,
,,,,,,,stim/VC_08.wav,5d7c7425c0d7db00187b1199,2021-01-21_22h02.31.209,Hungarian_step4,2020.2.3,Win32,60,,,right,0.564675,2,10,32,7,1,,,,,,,,,,,,,,,,,,,,,,,
,,,,,,,stim/VC_05.wav,5d7c7425c0d7db00187b1199,2021-01-21_22h02.31.209,Hungarian_step4,2020.2.3,Win32,60,,,left,0.65754,,,,,,3,2.557115,0,0,0,4,1,,,,,,,,,,,,,,,,
,,,,,,,stim/VC_02.wav,5d7c7425c0d7db00187b1199,2021-01-21_22h02.31.209,Hungarian_step4,2020.2.3,Win32,60,,,left,0.530295,,,,,,,,0,1,1,1,1,,,,,,,,,,,,,,,,
,,,,,,,stim/VC_06.wav,5d7c7425c0d7db00187b1199,2021-01-21_22h02.31.209,Hungarian_step4,2020.2.3,Win32,60,,,left,0.760105,,,,,,,,0,2,2,5,1,,,,,,,,,,,,,,,,
,,,,,,,stim/VC_09.wav,5d7c7425c0d7db00187b1199,2021-01-21_22h02.31.209,Hungarian_step4,2020.2.3,Win32,60,,,right,0.50077,,,,,,,,0,3,3,8,1,,,,,,,,,,,,,,,,
,,,,,,,stim/VC_04.wav,5d7c7425c0d7db00187b1199,2021-01-21_22h02.31.209,Hungarian_step4,2020.2.3,Win32,60,,,left,0.55582,,,,,,,,0,4,4,3,1,,,,,,,,,,,,,,,,
,,,,,,,stim/VC_01.wav,5d7c7425c0d7db00187b1199,2021-01-21_22h02.31.209,Hungarian_step4,2020.2.3,Win32,60,,,left,0.5765,,,,,,,,0,5,5,0,1,,,,,,,,,,,,,,,,
,,,,,,,stim/VC_11.wav,5d7c7425c0d7db00187b1199,2021-01-21_22h02.31.209,Hungarian_step4,2020.2.3,Win32,60,,,right,0.500395,,,,,,,,0,6,6,10,1,,,,,,,,,,,,,,,,
,,,,,,,stim/VC_08.wav,5d7c7425c0d7db00187b1199,2021-01-21_22h02.31.209,Hungarian_step4,2020.2.3,Win32,60,,,right,0.683475,,,,,,,,0,7,7,7,1,,,,,,,,,,,,,,,,
,,,,,,,stim/VC_03.wav,5d7c7425c0d7db00187b1199,2021-01-21_22h02.31.209,Hungarian_step4,2020.2.3,Win32,60,,,left,0.74553,,,,,,,,0,8,8,2,1,,,,,,,,,,,,,,,,
,,,,,,,stim/VC_07.wav,5d7c7425c0d7db00187b1199,2021-01-21_22h02.31.209,Hungarian_step4,2020.2.3,Win32,60,,,right,0.681015,,,,,,,,0,9,9,6,1,,,,,,,,,,,,,,,,
,,,,,,,stim/VC_10.wav,5d7c7425c0d7db00187b1199,2021-01-21_22h02.31.209,Hungarian_step4,2020.2.3,Win32,60,,,right,0.71247,,,,,,,,0,10,10,9,1,,,,,,,,,,,,,,,,
,,,,,,,stim/VC_09.wav,5d7c7425c0d7db00187b1199,2021-01-21_22h02.31.209,Hungarian_step4,2020.2.3,Win32,60,,,right,0.583195,,,,,,,,1,0,11,8,1,,,,,,,,,,,,,,,,
,,,,,,,stim/VC_03.wav,5d7c7425c0d7db00187b1199,2021-01-21_22h02.31.209,Hungarian_step4,2020.2.3,Win32,60,,,left,0.55498,,,,,,,,1,1,12,2,1,,,,,,,,,,,,,,,,
,,,,,,,stim/VC_11.wav,5d7c7425c0d7db00187b1199,2021-01-21_22h02.31.209,Hungarian_step4,2020.2.3,Win32,60,,,right,0.582645,,,,,,,,1,2,13,10,1,,,,,,,,,,,,,,,,
,,,,,,,stim/VC_10.wav,5d7c7425c0d7db00187b1199,2021-01-21_22h02.31.209,Hungarian_step4,2020.2.3,Win32,60,,,right,0.57948,,,,,,,,1,3,14,9,1,,,,,,,,,,,,,,,,
,,,,,,,stim/VC_04.wav,5d7c7425c0d7db00187b1199,2021-01-21_22h02.31.209,Hungarian_step4,2020.2.3,Win32,60,,,left,0.568925,,,,,,,,1,4,15,3,1,,,,,,,,,,,,,,,,
,,,,,,,stim/VC_05.wav,5d7c7425c0d7db00187b1199,2021-01-21_22h02.31.209,Hungarian_step4,2020.2.3,Win32,60,,,left,0.571425,,,,,,,,1,5,16,4,1,,,,,,,,,,,,,,,,
,,,,,,,stim/VC_02.wav,5d7c7425c0d7db00187b1199,2021-01-21_22h02.31.209,Hungarian_step4,2020.2.3,Win32,60,,,left,0.5432,,,,,,,,1,6,17,1,1,,,,,,,,,,,,,,,,
,,,,,,,stim/VC_06.wav,5d7c7425c0d7db00187b1199,2021-01-21_22h02.31.209,Hungarian_step4,2020.2.3,Win32,60,,,right,0.61147,,,,,,,,1,7,18,5,1,,,,,,,,,,,,,,,,
,,,,,,,stim/VC_07.wav,5d7c7425c0d7db00187b1199,2021-01-21_22h02.31.209,Hungarian_step4,2020.2.3,Win32,60,,,right,0.486025,,,,,,,,1,8,19,6,1,,,,,,,,,,,,,,,,
,,,,,,,stim/VC_08.wav,5d7c7425c0d7db00187b1199,2021-01-21_22h02.31.209,Hungarian_step4,2020.2.3,Win32,60,,,right,0.717335,,,,,,,,1,9,20,7,1,,,,,,,,,,,,,,,,
,,,,,,,stim/VC_01.wav,5d7c7425c0d7db00187b1199,2021-01-21_22h02.31.209,Hungarian_step4,2020.2.3,Win32,60,,,left,0.52275,,,,,,,,1,10,21,0,1,,,,,,,,,,,,,,,,
,,,,,,,stim2/pa+50.wav,5d7c7425c0d7db00187b1199,2021-01-21_22h02.31.209,Hungarian_step4,2020.2.3,Win32,60,,,,,,,,,,,,,,,,,left,1.16686,0,0,0,9,1,,,,,,,,,
,,,,,,,stim2/pa+10.wav,5d7c7425c0d7db00187b1199,2021-01-21_22h02.31.209,Hungarian_step4,2020.2.3,Win32,60,,,,,,,,,,,,,,,,,left,0.536315,0,1,1,1,1,,,,,,,,,
,,,,,,,stim2/pa+40.wav,5d7c7425c0d7db00187b1199,2021-01-21_22h02.31.209,Hungarian_step4,2020.2.3,Win32,60,,,,,,,,,,,,,,,,,left,0.44575,0,2,2,7,1,,,,,,,,,
,,,,,,,stim2/pa-05.wav,5d7c7425c0d7db00187b1199,2021-01-21_22h02.31.209,Hungarian_step4,2020.2.3,Win32,60,,,,,,,,,,,,,,,,,left,0.470895,0,3,3,10,1,,,,,,,,,
,,,,,,,stim2/pa-20.wav,5d7c7425c0d7db00187b1199,2021-01-21_22h02.31.209,Hungarian_step4,2020.2.3,Win32,60,,,,,,,,,,,,,,,,,right,0.46233,0,4,4,13,1,,,,,,,,,
,,,,,,,stim2/pa-15.wav,5d7c7425c0d7db00187b1199,2021-01-21_22h02.31.209,Hungarian_step4,2020.2.3,Win32,60,,,,,,,,,,,,,,,,,right,0.48756,0,5,5,12,1,,,,,,,,,
,,,,,,,stim2/pa+20.wav,5d7c7425c0d7db00187b1199,2021-01-21_22h02.31.209,Hungarian_step4,2020.2.3,Win32,60,,,,,,,,,,,,,,,,,left,0.541935,0,6,6,3,1,,,,,,,,,
,,,,,,,stim2/pa-10.wav,5d7c7425c0d7db00187b1199,2021-01-21_22h02.31.209,Hungarian_step4,2020.2.3,Win32,60,,,,,,,,,,,,,,,,,right,0.70756,0,7,7,11,1,,,,,,,,,
,,,,,,,stim2/pa+30.wav,5d7c7425c0d7db00187b1199,2021-01-21_22h02.31.209,Hungarian_step4,2020.2.3,Win32,60,,,,,,,,,,,,,,,,,left,0.53026,0,8,8,5,1,,,,,,,,,
,,,,,,,stim2/pa+15.wav,5d7c7425c0d7db00187b1199,2021-01-21_22h02.31.209,Hungarian_step4,2020.2.3,Win32,60,,,,,,,,,,,,,,,,,left,0.503935,0,9,9,2,1,,,,,,,,,
,,,,,,,stim2/pa+25.wav,5d7c7425c0d7db00187b1199,2021-01-21_22h02.31.209,Hungarian_step4,2020.2.3,Win32,60,,,,,,,,,,,,,,,,,left,0.55692,0,10,10,4,1,,,,,,,,,
,,,,,,,stim2/pa-25.wav,5d7c7425c0d7db00187b1199,2021-01-21_22h02.31.209,Hungarian_step4,2020.2.3,Win32,60,,,,,,,,,,,,,,,,,right,0.59464,0,11,11,14,1,,,,,,,,,
,,,,,,,stim2/pa+05.wav,5d7c7425c0d7db00187b1199,2021-01-21_22h02.31.209,Hungarian_step4,2020.2.3,Win32,60,,,,,,,,,,,,,,,,,left,0.61743,0,12,12,0,1,,,,,,,,,
,,,,,,,stim2/pa+45.wav,5d7c7425c0d7db00187b1199,2021-01-21_22h02.31.209,Hungarian_step4,2020.2.3,Win32,60,,,,,,,,,,,,,,,,,left,0.55267,0,13,13,8,1,,,,,,,,,
,,,,,,,stim2/pa-35.wav,5d7c7425c0d7db00187b1199,2021-01-21_22h02.31.209,Hungarian_step4,2020.2.3,Win32,60,,,,,,,,,,,,,,,,,right,0.6372,0,14,14,16,1,,,,,,,,,
,,,,,,,stim2/pa-30.wav,5d7c7425c0d7db00187b1199,2021-01-21_22h02.31.209,Hungarian_step4,2020.2.3,Win32,60,,,,,,,,,,,,,,,,,right,0.47921,0,15,15,15,1,,,,,,,,,
,,,,,,,stim2/pa+35.wav,5d7c7425c0d7db00187b1199,2021-01-21_22h02.31.209,Hungarian_step4,2020.2.3,Win32,60,,,,,,,,,,,,,,,,,left,0.583935,0,16,16,6,1,,,,,,,,,
,,,,,,,stim2/pa+20.wav,5d7c7425c0d7db00187b1199,2021-01-21_22h02.31.209,Hungarian_step4,2020.2.3,Win32,60,,,,,,,,,,,,,,,,,right,0.6011,1,0,17,3,1,,,,,,,,,
,,,,,,,stim2/pa-35.wav,5d7c7425c0d7db00187b1199,2021-01-21_22h02.31.209,Hungarian_step4,2020.2.3,Win32,60,,,,,,,,,,,,,,,,,right,0.57241,1,1,18,16,1,,,,,,,,,
,,,,,,,stim2/pa+05.wav,5d7c7425c0d7db00187b1199,2021-01-21_22h02.31.209,Hungarian_step4,2020.2.3,Win32,60,,,,,,,,,,,,,,,,,right,0.99307,1,2,19,0,1,,,,,,,,,
,,,,,,,stim2/pa+25.wav,5d7c7425c0d7db00187b1199,2021-01-21_22h02.31.209,Hungarian_step4,2020.2.3,Win32,60,,,,,,,,,,,,,,,,,left,0.46748,1,3,20,4,1,,,,,,,,,
,,,,,,,stim2/pa-20.wav,5d7c7425c0d7db00187b1199,2021-01-21_22h02.31.209,Hungarian_step4,2020.2.3,Win32,60,,,,,,,,,,,,,,,,,right,0.539725,1,4,21,13,1,,,,,,,,,
,,,,,,,stim2/pa-15.wav,5d7c7425c0d7db00187b1199,2021-01-21_22h02.31.209,Hungarian_step4,2020.2.3,Win32,60,,,,,,,,,,,,,,,,,right,0.577025,1,5,22,12,1,,,,,,,,,
,,,,,,,stim2/pa-05.wav,5d7c7425c0d7db00187b1199,2021-01-21_22h02.31.209,Hungarian_step4,2020.2.3,Win32,60,,,,,,,,,,,,,,,,,right,0.629055,1,6,23,10,1,,,,,,,,,
,,,,,,,stim2/pa-10.wav,5d7c7425c0d7db00187b1199,2021-01-21_22h02.31.209,Hungarian_step4,2020.2.3,Win32,60,,,,,,,,,,,,,,,,,right,0.550425,1,7,24,11,1,,,,,,,,,
,,,,,,,stim2/pa+45.wav,5d7c7425c0d7db00187b1199,2021-01-21_22h02.31.209,Hungarian_step4,2020.2.3,Win32,60,,,,,,,,,,,,,,,,,left,0.507255,1,8,25,8,1,,,,,,,,,
,,,,,,,stim2/pa+10.wav,5d7c7425c0d7db00187b1199,2021-01-21_22h02.31.209,Hungarian_step4,2020.2.3,Win32,60,,,,,,,,,,,,,,,,,left,0.529695,1,9,26,1,1,,,,,,,,,
,,,,,,,stim2/pa+40.wav,5d7c7425c0d7db00187b1199,2021-01-21_22h02.31.209,Hungarian_step4,2020.2.3,Win32,60,,,,,,,,,,,,,,,,,left,0.6474,1,10,27,7,1,,,,,,,,,
,,,,,,,stim2/pa-30.wav,5d7c7425c0d7db00187b1199,2021-01-21_22h02.31.209,Hungarian_step4,2020.2.3,Win32,60,,,,,,,,,,,,,,,,,right,0.52016,1,11,28,15,1,,,,,,,,,
,,,,,,,stim2/pa+30.wav,5d7c7425c0d7db00187b1199,2021-01-21_22h02.31.209,Hungarian_step4,2020.2.3,Win32,60,,,,,,,,,,,,,,,,,left,0.52644,1,12,29,5,1,,,,,,,,,
,,,,,,,stim2/pa-25.wav,5d7c7425c0d7db00187b1199,2021-01-21_22h02.31.209,Hungarian_step4,2020.2.3,Win32,60,,,,,,,,,,,,,,,,,right,0.52017,1,13,30,14,1,,,,,,,,,
,,,,,,,stim2/pa+15.wav,5d7c7425c0d7db00187b1199,2021-01-21_22h02.31.209,Hungarian_step4,2020.2.3,Win32,60,,,,,,,,,,,,,,,,,left,0.61347,1,14,31,2,1,,,,,,,,,
,,,,,,,stim2/pa+50.wav,5d7c7425c0d7db00187b1199,2021-01-21_22h02.31.209,Hungarian_step4,2020.2.3,Win32,60,,,,,,,,,,,,,,,,,left,0.52398,1,15,32,9,1,,,,,,,,,
,,,,,,,stim2/pa+35.wav,5d7c7425c0d7db00187b1199,2021-01-21_22h02.31.209,Hungarian_step4,2020.2.3,Win32,60,,,,,,,,,,,,,,,,,left,0.48368,1,16,33,6,1,,,,,,,,,
,,,,,,,stim2/pa+25.wav,5d7c7425c0d7db00187b1199,2021-01-21_22h02.31.209,Hungarian_step4,2020.2.3,Win32,60,,,,,,,,,,,,,,,,,left,0.470135,2,0,34,4,1,,,,,,,,,
,,,,,,,stim2/pa-25.wav,5d7c7425c0d7db00187b1199,2021-01-21_22h02.31.209,Hungarian_step4,2020.2.3,Win32,60,,,,,,,,,,,,,,,,,right,0.52616,2,1,35,14,1,,,,,,,,,
,,,,,,,stim2/pa-05.wav,5d7c7425c0d7db00187b1199,2021-01-21_22h02.31.209,Hungarian_step4,2020.2.3,Win32,60,,,,,,,,,,,,,,,,,right,1.19142,2,2,36,10,1,,,,,,,,,
,,,,,,,stim2/pa-15.wav,5d7c7425c0d7db00187b1199,2021-01-21_22h02.31.209,Hungarian_step4,2020.2.3,Win32,60,,,,,,,,,,,,,,,,,right,0.721245,2,3,37,12,1,,,,,,,,,
,,,,,,,stim2/pa-10.wav,5d7c7425c0d7db00187b1199,2021-01-21_22h02.31.209,Hungarian_step4,2020.2.3,Win32,60,,,,,,,,,,,,,,,,,right,0.572385,2,4,38,11,1,,,,,,,,,
,,,,,,,stim2/pa+45.wav,5d7c7425c0d7db00187b1199,2021-01-21_22h02.31.209,Hungarian_step4,2020.2.3,Win32,60,,,,,,,,,,,,,,,,,left,0.450985,2,5,39,8,1,,,,,,,,,
,,,,,,,stim2/pa+20.wav,5d7c7425c0d7db00187b1199,2021-01-21_22h02.31.209,Hungarian_step4,2020.2.3,Win32,60,,,,,,,,,,,,,,,,,left,0.508655,2,6,40,3,1,,,,,,,,,
,,,,,,,stim2/pa-35.wav,5d7c7425c0d7db00187b1199,2021-01-21_22h02.31.209,Hungarian_step4,2020.2.3,Win32,60,,,,,,,,,,,,,,,,,right,0.53095,2,7,41,16,1,,,,,,,,,
,,,,,,,stim2/pa+10.wav,5d7c7425c0d7db00187b1199,2021-01-21_22h02.31.209,Hungarian_step4,2020.2.3,Win32,60,,,,,,,,,,,,,,,,,left,0.481215,2,8,42,1,1,,,,,,,,,
,,,,,,,stim2/pa+50.wav,5d7c7425c0d7db00187b1199,2021-01-21_22h02.31.209,Hungarian_step4,2020.2.3,Win32,60,,,,,,,,,,,,,,,,,left,0.561435,2,9,43,9,1,,,,,,,,,
,,,,,,,stim2/pa+15.wav,5d7c7425c0d7db00187b1199,2021-01-21_22h02.31.209,Hungarian_step4,2020.2.3,Win32,60,,,,,,,,,,,,,,,,,left,0.55008,2,10,44,2,1,,,,,,,,,
,,,,,,,stim2/pa+40.wav,5d7c7425c0d7db00187b1199,2021-01-21_22h02.31.209,Hungarian_step4,2020.2.3,Win32,60,,,,,,,,,,,,,,,,,left,0.519195,2,11,45,7,1,,,,,,,,,
,,,,,,,stim2/pa+05.wav,5d7c7425c0d7db00187b1199,2021-01-21_22h02.31.209,Hungarian_step4,2020.2.3,Win32,60,,,,,,,,,,,,,,,,,right,0.52488,2,12,46,0,1,,,,,,,,,
,,,,,,,stim2/pa-30.wav,5d7c7425c0d7db00187b1199,2021-01-21_22h02.31.209,Hungarian_step4,2020.2.3,Win32,60,,,,,,,,,,,,,,,,,right,0.659205,2,13,47,15,1,,,,,,,,,
,,,,,,,stim2/pa+35.wav,5d7c7425c0d7db00187b1199,2021-01-21_22h02.31.209,Hungarian_step4,2020.2.3,Win32,60,,,,,,,,,,,,,,,,,left,0.516955,2,14,48,6,1,,,,,,,,,
,,,,,,,stim2/pa+30.wav,5d7c7425c0d7db00187b1199,2021-01-21_22h02.31.209,Hungarian_step4,2020.2.3,Win32,60,,,,,,,,,,,,,,,,,left,0.505035,2,15,49,5,1,,,,,,,,,
,,,,,,,stim2/pa-20.wav,5d7c7425c0d7db00187b1199,2021-01-21_22h02.31.209,Hungarian_step4,2020.2.3,Win32,60,,,,,,,,,,,,,,,,,right,0.579755,2,16,50,13,1,,,,,,,,,
,,,,,,,stim2/pa+05.wav,5d7c7425c0d7db00187b1199,2021-01-21_22h02.31.209,Hungarian_step4,2020.2.3,Win32,60,,,,,,,,,,,,,,,,,left,0.964195,,,,,,f,1.88339,0,0,0,0,1,,
,,,,,,,stim2/pa-20.wav,5d7c7425c0d7db00187b1199,2021-01-21_22h02.31.209,Hungarian_step4,2020.2.3,Win32,60,,,,,,,,,,,,,,,,,right,0.444615,,,,,,,,0,1,1,13,1,,
,,,,,,,stim2/pa-30.wav,5d7c7425c0d7db00187b1199,2021-01-21_22h02.31.209,Hungarian_step4,2020.2.3,Win32,60,,,,,,,,,,,,,,,,,right,0.516995,,,,,,,,0,2,2,15,1,,
,,,,,,,stim2/pa-15.wav,5d7c7425c0d7db00187b1199,2021-01-21_22h02.31.209,Hungarian_step4,2020.2.3,Win32,60,,,,,,,,,,,,,,,,,right,0.539855,,,,,,,,0,3,3,12,1,,
,,,,,,,stim2/pa-25.wav,5d7c7425c0d7db00187b1199,2021-01-21_22h02.31.209,Hungarian_step4,2020.2.3,Win32,60,,,,,,,,,,,,,,,,,right,0.48399,,,,,,,,0,4,4,14,1,,
,,,,,,,stim2/pa+20.wav,5d7c7425c0d7db00187b1199,2021-01-21_22h02.31.209,Hungarian_step4,2020.2.3,Win32,60,,,,,,,,,,,,,,,,,left,0.651065,,,,,,,,0,5,5,3,1,,
,,,,,,,stim2/pa-35.wav,5d7c7425c0d7db00187b1199,2021-01-21_22h02.31.209,Hungarian_step4,2020.2.3,Win32,60,,,,,,,,,,,,,,,,,right,0.50531,,,,,,,,0,6,6,16,1,,
,,,,,,,stim2/pa+25.wav,5d7c7425c0d7db00187b1199,2021-01-21_22h02.31.209,Hungarian_step4,2020.2.3,Win32,60,,,,,,,,,,,,,,,,,left,0.40015,,,,,,,,0,7,7,4,1,,
,,,,,,,stim2/pa+45.wav,5d7c7425c0d7db00187b1199,2021-01-21_22h02.31.209,Hungarian_step4,2020.2.3,Win32,60,,,,,,,,,,,,,,,,,left,0.474845,,,,,,,,0,8,8,8,1,,
,,,,,,,stim2/pa+40.wav,5d7c7425c0d7db00187b1199,2021-01-21_22h02.31.209,Hungarian_step4,2020.2.3,Win32,60,,,,,,,,,,,,,,,,,left,0.48379,,,,,,,,0,9,9,7,1,,
,,,,,,,stim2/pa+35.wav,5d7c7425c0d7db00187b1199,2021-01-21_22h02.31.209,Hungarian_step4,2020.2.3,Win32,60,,,,,,,,,,,,,,,,,left,0.425505,,,,,,,,0,10,10,6,1,,
,,,,,,,stim2/pa+50.wav,5d7c7425c0d7db00187b1199,2021-01-21_22h02.31.209,Hungarian_step4,2020.2.3,Win32,60,,,,,,,,,,,,,,,,,left,0.451035,,,,,,,,0,11,11,9,1,,
,,,,,,,stim2/pa-10.wav,5d7c7425c0d7db00187b1199,2021-01-21_22h02.31.209,Hungarian_step4,2020.2.3,Win32,60,,,,,,,,,,,,,,,,,right,0.49211,,,,,,,,0,12,12,11,1,,
,,,,,,,stim2/pa+30.wav,5d7c7425c0d7db00187b1199,2021-01-21_22h02.31.209,Hungarian_step4,2020.2.3,Win32,60,,,,,,,,,,,,,,,,,left,0.867155,,,,,,,,0,13,13,5,1,,
,,,,,,,stim2/pa+15.wav,5d7c7425c0d7db00187b1199,2021-01-21_22h02.31.209,Hungarian_step4,2020.2.3,Win32,60,,,,,,,,,,,,,,,,,left,0.906695,,,,,,,,0,14,14,2,1,,
,,,,,,,stim2/pa+10.wav,5d7c7425c0d7db00187b1199,2021-01-21_22h02.31.209,Hungarian_step4,2020.2.3,Win32,60,,,,,,,,,,,,,,,,,right,0.400685,,,,,,,,0,15,15,1,1,,
,,,,,,,stim2/pa-05.wav,5d7c7425c0d7db00187b1199,2021-01-21_22h02.31.209,Hungarian_step4,2020.2.3,Win32,60,,,,,,,,,,,,,,,,,right,0.491875,,,,,,,,0,16,16,10,1,,
,,,,,,,stim2/pa+40.wav,5d7c7425c0d7db00187b1199,2021-01-21_22h02.31.209,Hungarian_step4,2020.2.3,Win32,60,,,,,,,,,,,,,,,,,left,0.58413,,,,,,,,1,0,17,7,1,,
,,,,,,,stim2/pa+50.wav,5d7c7425c0d7db00187b1199,2021-01-21_22h02.31.209,Hungarian_step4,2020.2.3,Win32,60,,,,,,,,,,,,,,,,,left,0.66397,,,,,,,,1,1,18,9,1,,
,,,,,,,stim2/pa+25.wav,5d7c7425c0d7db00187b1199,2021-01-21_22h02.31.209,Hungarian_step4,2020.2.3,Win32,60,,,,,,,,,,,,,,,,,left,0.77421,,,,,,,,1,2,19,4,1,,
,,,,,,,stim2/pa+15.wav,5d7c7425c0d7db00187b1199,2021-01-21_22h02.31.209,Hungarian_step4,2020.2.3,Win32,60,,,,,,,,,,,,,,,,,left,0.53388,,,,,,,,1,3,20,2,1,,
,,,,,,,stim2/pa-30.wav,5d7c7425c0d7db00187b1199,2021-01-21_22h02.31.209,Hungarian_step4,2020.2.3,Win32,60,,,,,,,,,,,,,,,,,right,0.53613,,,,,,,,1,4,21,15,1,,
,,,,,,,stim2/pa+05.wav,5d7c7425c0d7db00187b1199,2021-01-21_22h02.31.209,Hungarian_step4,2020.2.3,Win32,60,,,,,,,,,,,,,,,,,right,1.266875,,,,,,,,1,5,22,0,1,,
,,,,,,,stim2/pa-20.wav,5d7c7425c0d7db00187b1199,2021-01-21_22h02.31.209,Hungarian_step4,2020.2.3,Win32,60,,,,,,,,,,,,,,,,,right,0.453425,,,,,,,,1,6,23,13,1,,
,,,,,,,stim2/pa-15.wav,5d7c7425c0d7db00187b1199,2021-01-21_22h02.31.209,Hungarian_step4,2020.2.3,Win32,60,,,,,,,,,,,,,,,,,right,0.57412,,,,,,,,1,7,24,12,1,,
,,,,,,,stim2/pa-35.wav,5d7c7425c0d7db00187b1199,2021-01-21_22h02.31.209,Hungarian_step4,2020.2.3,Win32,60,,,,,,,,,,,,,,,,,right,0.4502,,,,,,,,1,8,25,16,1,,
,,,,,,,stim2/pa-10.wav,5d7c7425c0d7db00187b1199,2021-01-21_22h02.31.209,Hungarian_step4,2020.2.3,Win32,60,,,,,,,,,,,,,,,,,right,0.554715,,,,,,,,1,9,26,11,1,,
,,,,,,,stim2/pa+10.wav,5d7c7425c0d7db00187b1199,2021-01-21_22h02.31.209,Hungarian_step4,2020.2.3,Win32,60,,,,,,,,,,,,,,,,,left,0.49891,,,,,,,,1,10,27,1,1,,
,,,,,,,stim2/pa-05.wav,5d7c7425c0d7db00187b1199,2021-01-21_22h02.31.209,Hungarian_step4,2020.2.3,Win32,60,,,,,,,,,,,,,,,,,right,0.50085,,,,,,,,1,11,28,10,1,,
,,,,,,,stim2/pa+35.wav,5d7c7425c0d7db00187b1199,2021-01-21_22h02.31.209,Hungarian_step4,2020.2.3,Win32,60,,,,,,,,,,,,,,,,,left,0.417105,,,,,,,,1,12,29,6,1,,
,,,,,,,stim2/pa+20.wav,5d7c7425c0d7db00187b1199,2021-01-21_22h02.31.209,Hungarian_step4,2020.2.3,Win32,60,,,,,,,,,,,,,,,,,left,0.43819,,,,,,,,1,13,30,3,1,,
,,,,,,,stim2/pa+30.wav,5d7c7425c0d7db00187b1199,2021-01-21_22h02.31.209,Hungarian_step4,2020.2.3,Win32,60,,,,,,,,,,,,,,,,,left,0.43387,,,,,,,,1,14,31,5,1,,
,,,,,,,stim2/pa+45.wav,5d7c7425c0d7db00187b1199,2021-01-21_22h02.31.209,Hungarian_step4,2020.2.3,Win32,60,,,,,,,,,,,,,,,,,left,0.45616,,,,,,,,1,15,32,8,1,,
,,,,,,,stim2/pa-25.wav,5d7c7425c0d7db00187b1199,2021-01-21_22h02.31.209,Hungarian_step4,2020.2.3,Win32,60,,,,,,,,,,,,,,,,,right,0.550435,,,,,,,,1,16,33,14,1,,
,,,,,,,,5d7c7425c0d7db00187b1199,2021-01-21_22h02.31.209,Hungarian_step4,2020.2.3,Win32,60,,,,,,,,,,,,,,,,,,,,,,,,,,,,,,,space,5.733425
