resp.keys,resp.rt,trials.thisRepN,trials.thisTrialN,trials.thisN,trials.thisIndex,trials.ran,stimuli,participant,date,expName,psychopyVersion,OS,frameRate,gotResponse.keys,gotResponse.rt,resp_2.keys,resp_2.rt,trials_2.thisRepN,trials_2.thisTrialN,trials_2.thisN,trials_2.thisIndex,trials_2.ran,key_resp_3.keys,key_resp_3.rt,trials_4.thisRepN,trials_4.thisTrialN,trials_4.thisN,trials_4.thisIndex,trials_4.ran,resp_3.keys,resp_3.rt,trials_3.thisRepN,trials_3.thisTrialN,trials_3.thisN,trials_3.thisIndex,trials_3.ran,key_resp_2.keys,key_resp_2.rt,trials_5.thisRepN,trials_5.thisTrialN,trials_5.thisN,trials_5.thisIndex,trials_5.ran,key_resp.keys,key_resp.rt
right,1.575835,0,0,0,1,1,stim/VC_11.wav,5e3f7b673ba9991dc9cabcfa,2021-01-21_08h05.27.167,Hungarian_step4,2020.2.3,Win32,60,,,,,,,,,,,,,,,,,,,,,,,,,,,,,,,,
left,0.70177,0,1,1,0,1,stim/VC_01.wav,5e3f7b673ba9991dc9cabcfa,2021-01-21_08h05.27.167,Hungarian_step4,2020.2.3,Win32,60,,,,,,,,,,,,,,,,,,,,,,,,,,,,,,,,
,,,,,,,stim/VC_04.wav,5e3f7b673ba9991dc9cabcfa,2021-01-21_08h05.27.167,Hungarian_step4,2020.2.3,Win32,60,space,1.648875,left,0.63387,0,0,0,3,1,,,,,,,,,,,,,,,,,,,,,,,
,,,,,,,stim/VC_08.wav,5e3f7b673ba9991dc9cabcfa,2021-01-21_08h05.27.167,Hungarian_step4,2020.2.3,Win32,60,,,right,0.516955,0,1,1,7,1,,,,,,,,,,,,,,,,,,,,,,,
,,,,,,,stim/VC_09.wav,5e3f7b673ba9991dc9cabcfa,2021-01-21_08h05.27.167,Hungarian_step4,2020.2.3,Win32,60,,,right,0.533665,0,2,2,8,1,,,,,,,,,,,,,,,,,,,,,,,
,,,,,,,stim/VC_02.wav,5e3f7b673ba9991dc9cabcfa,2021-01-21_08h05.27.167,Hungarian_step4,2020.2.3,Win32,60,,,left,0.42142,0,3,3,1,1,,,,,,,,,,,,,,,,,,,,,,,
,,,,,,,stim/VC_01.wav,5e3f7b673ba9991dc9cabcfa,2021-01-21_08h05.27.167,Hungarian_step4,2020.2.3,Win32,60,,,left,0.47566,0,4,4,0,1,,,,,,,,,,,,,,,,,,,,,,,
,,,,,,,stim/VC_07.wav,5e3f7b673ba9991dc9cabcfa,2021-01-21_08h05.27.167,Hungarian_step4,2020.2.3,Win32,60,,,right,0.54956,0,5,5,6,1,,,,,,,,,,,,,,,,,,,,,,,
,,,,,,,stim/VC_11.wav,5e3f7b673ba9991dc9cabcfa,2021-01-21_08h05.27.167,Hungarian_step4,2020.2.3,Win32,60,,,right,0.46752,0,6,6,10,1,,,,,,,,,,,,,,,,,,,,,,,
,,,,,,,stim/VC_06.wav,5e3f7b673ba9991dc9cabcfa,2021-01-21_08h05.27.167,Hungarian_step4,2020.2.3,Win32,60,,,right,0.51639,0,7,7,5,1,,,,,,,,,,,,,,,,,,,,,,,
,,,,,,,stim/VC_05.wav,5e3f7b673ba9991dc9cabcfa,2021-01-21_08h05.27.167,Hungarian_step4,2020.2.3,Win32,60,,,right,0.47638,0,8,8,4,1,,,,,,,,,,,,,,,,,,,,,,,
,,,,,,,stim/VC_10.wav,5e3f7b673ba9991dc9cabcfa,2021-01-21_08h05.27.167,Hungarian_step4,2020.2.3,Win32,60,,,right,0.51619,0,9,9,9,1,,,,,,,,,,,,,,,,,,,,,,,
,,,,,,,stim/VC_03.wav,5e3f7b673ba9991dc9cabcfa,2021-01-21_08h05.27.167,Hungarian_step4,2020.2.3,Win32,60,,,left,0.349955,0,10,10,2,1,,,,,,,,,,,,,,,,,,,,,,,
,,,,,,,stim/VC_03.wav,5e3f7b673ba9991dc9cabcfa,2021-01-21_08h05.27.167,Hungarian_step4,2020.2.3,Win32,60,,,left,0.525435,1,0,11,2,1,,,,,,,,,,,,,,,,,,,,,,,
,,,,,,,stim/VC_10.wav,5e3f7b673ba9991dc9cabcfa,2021-01-21_08h05.27.167,Hungarian_step4,2020.2.3,Win32,60,,,right,0.566945,1,1,12,9,1,,,,,,,,,,,,,,,,,,,,,,,
,,,,,,,stim/VC_06.wav,5e3f7b673ba9991dc9cabcfa,2021-01-21_08h05.27.167,Hungarian_step4,2020.2.3,Win32,60,,,right,0.506475,1,2,13,5,1,,,,,,,,,,,,,,,,,,,,,,,
,,,,,,,stim/VC_01.wav,5e3f7b673ba9991dc9cabcfa,2021-01-21_08h05.27.167,Hungarian_step4,2020.2.3,Win32,60,,,left,0.478025,1,3,14,0,1,,,,,,,,,,,,,,,,,,,,,,,
,,,,,,,stim/VC_07.wav,5e3f7b673ba9991dc9cabcfa,2021-01-21_08h05.27.167,Hungarian_step4,2020.2.3,Win32,60,,,right,0.540935,1,4,15,6,1,,,,,,,,,,,,,,,,,,,,,,,
,,,,,,,stim/VC_08.wav,5e3f7b673ba9991dc9cabcfa,2021-01-21_08h05.27.167,Hungarian_step4,2020.2.3,Win32,60,,,right,0.560845,1,5,16,7,1,,,,,,,,,,,,,,,,,,,,,,,
,,,,,,,stim/VC_05.wav,5e3f7b673ba9991dc9cabcfa,2021-01-21_08h05.27.167,Hungarian_step4,2020.2.3,Win32,60,,,left,0.8997,1,6,17,4,1,,,,,,,,,,,,,,,,,,,,,,,
,,,,,,,stim/VC_02.wav,5e3f7b673ba9991dc9cabcfa,2021-01-21_08h05.27.167,Hungarian_step4,2020.2.3,Win32,60,,,left,0.55008,1,7,18,1,1,,,,,,,,,,,,,,,,,,,,,,,
,,,,,,,stim/VC_11.wav,5e3f7b673ba9991dc9cabcfa,2021-01-21_08h05.27.167,Hungarian_step4,2020.2.3,Win32,60,,,right,0.50067,1,8,19,10,1,,,,,,,,,,,,,,,,,,,,,,,
,,,,,,,stim/VC_04.wav,5e3f7b673ba9991dc9cabcfa,2021-01-21_08h05.27.167,Hungarian_step4,2020.2.3,Win32,60,,,left,0.502995,1,9,20,3,1,,,,,,,,,,,,,,,,,,,,,,,
,,,,,,,stim/VC_09.wav,5e3f7b673ba9991dc9cabcfa,2021-01-21_08h05.27.167,Hungarian_step4,2020.2.3,Win32,60,,,right,0.557295,1,10,21,8,1,,,,,,,,,,,,,,,,,,,,,,,
,,,,,,,stim/VC_04.wav,5e3f7b673ba9991dc9cabcfa,2021-01-21_08h05.27.167,Hungarian_step4,2020.2.3,Win32,60,,,left,0.3835,2,0,22,3,1,,,,,,,,,,,,,,,,,,,,,,,
,,,,,,,stim/VC_03.wav,5e3f7b673ba9991dc9cabcfa,2021-01-21_08h05.27.167,Hungarian_step4,2020.2.3,Win32,60,,,left,0.441735,2,1,23,2,1,,,,,,,,,,,,,,,,,,,,,,,
,,,,,,,stim/VC_09.wav,5e3f7b673ba9991dc9cabcfa,2021-01-21_08h05.27.167,Hungarian_step4,2020.2.3,Win32,60,,,right,0.45027,2,2,24,8,1,,,,,,,,,,,,,,,,,,,,,,,
,,,,,,,stim/VC_11.wav,5e3f7b673ba9991dc9cabcfa,2021-01-21_08h05.27.167,Hungarian_step4,2020.2.3,Win32,60,,,right,0.511045,2,3,25,10,1,,,,,,,,,,,,,,,,,,,,,,,
,,,,,,,stim/VC_06.wav,5e3f7b673ba9991dc9cabcfa,2021-01-21_08h05.27.167,Hungarian_step4,2020.2.3,Win32,60,,,left,0.78265,2,4,26,5,1,,,,,,,,,,,,,,,,,,,,,,,
,,,,,,,stim/VC_08.wav,5e3f7b673ba9991dc9cabcfa,2021-01-21_08h05.27.167,Hungarian_step4,2020.2.3,Win32,60,,,right,0.75924,2,5,27,7,1,,,,,,,,,,,,,,,,,,,,,,,
,,,,,,,stim/VC_01.wav,5e3f7b673ba9991dc9cabcfa,2021-01-21_08h05.27.167,Hungarian_step4,2020.2.3,Win32,60,,,left,0.366835,2,6,28,0,1,,,,,,,,,,,,,,,,,,,,,,,
,,,,,,,stim/VC_05.wav,5e3f7b673ba9991dc9cabcfa,2021-01-21_08h05.27.167,Hungarian_step4,2020.2.3,Win32,60,,,left,0.80367,2,7,29,4,1,,,,,,,,,,,,,,,,,,,,,,,
,,,,,,,stim/VC_02.wav,5e3f7b673ba9991dc9cabcfa,2021-01-21_08h05.27.167,Hungarian_step4,2020.2.3,Win32,60,,,left,0.479415,2,8,30,1,1,,,,,,,,,,,,,,,,,,,,,,,
,,,,,,,stim/VC_07.wav,5e3f7b673ba9991dc9cabcfa,2021-01-21_08h05.27.167,Hungarian_step4,2020.2.3,Win32,60,,,right,0.539755,2,9,31,6,1,,,,,,,,,,,,,,,,,,,,,,,
,,,,,,,stim/VC_10.wav,5e3f7b673ba9991dc9cabcfa,2021-01-21_08h05.27.167,Hungarian_step4,2020.2.3,Win32,60,,,right,0.687615,2,10,32,9,1,,,,,,,,,,,,,,,,,,,,,,,
,,,,,,,stim/VC_06.wav,5e3f7b673ba9991dc9cabcfa,2021-01-21_08h05.27.167,Hungarian_step4,2020.2.3,Win32,60,,,left,0.94416,,,,,,3,3.264535,0,0,0,5,1,,,,,,,,,,,,,,,,
,,,,,,,stim/VC_08.wav,5e3f7b673ba9991dc9cabcfa,2021-01-21_08h05.27.167,Hungarian_step4,2020.2.3,Win32,60,,,right,0.45533,,,,,,,,0,1,1,7,1,,,,,,,,,,,,,,,,
,,,,,,,stim/VC_11.wav,5e3f7b673ba9991dc9cabcfa,2021-01-21_08h05.27.167,Hungarian_step4,2020.2.3,Win32,60,,,right,0.62288,,,,,,,,0,2,2,10,1,,,,,,,,,,,,,,,,
,,,,,,,stim/VC_01.wav,5e3f7b673ba9991dc9cabcfa,2021-01-21_08h05.27.167,Hungarian_step4,2020.2.3,Win32,60,,,left,0.423545,,,,,,,,0,3,3,0,1,,,,,,,,,,,,,,,,
,,,,,,,stim/VC_03.wav,5e3f7b673ba9991dc9cabcfa,2021-01-21_08h05.27.167,Hungarian_step4,2020.2.3,Win32,60,,,left,0.523185,,,,,,,,0,4,4,2,1,,,,,,,,,,,,,,,,
,,,,,,,stim/VC_10.wav,5e3f7b673ba9991dc9cabcfa,2021-01-21_08h05.27.167,Hungarian_step4,2020.2.3,Win32,60,,,right,0.48883,,,,,,,,0,5,5,9,1,,,,,,,,,,,,,,,,
,,,,,,,stim/VC_02.wav,5e3f7b673ba9991dc9cabcfa,2021-01-21_08h05.27.167,Hungarian_step4,2020.2.3,Win32,60,,,left,0.483645,,,,,,,,0,6,6,1,1,,,,,,,,,,,,,,,,
,,,,,,,stim/VC_09.wav,5e3f7b673ba9991dc9cabcfa,2021-01-21_08h05.27.167,Hungarian_step4,2020.2.3,Win32,60,,,right,0.716495,,,,,,,,0,7,7,8,1,,,,,,,,,,,,,,,,
,,,,,,,stim/VC_04.wav,5e3f7b673ba9991dc9cabcfa,2021-01-21_08h05.27.167,Hungarian_step4,2020.2.3,Win32,60,,,left,0.433645,,,,,,,,0,8,8,3,1,,,,,,,,,,,,,,,,
,,,,,,,stim/VC_05.wav,5e3f7b673ba9991dc9cabcfa,2021-01-21_08h05.27.167,Hungarian_step4,2020.2.3,Win32,60,,,left,0.6999,,,,,,,,0,9,9,4,1,,,,,,,,,,,,,,,,
,,,,,,,stim/VC_07.wav,5e3f7b673ba9991dc9cabcfa,2021-01-21_08h05.27.167,Hungarian_step4,2020.2.3,Win32,60,,,right,0.48363,,,,,,,,0,10,10,6,1,,,,,,,,,,,,,,,,
,,,,,,,stim/VC_03.wav,5e3f7b673ba9991dc9cabcfa,2021-01-21_08h05.27.167,Hungarian_step4,2020.2.3,Win32,60,,,left,0.435075,,,,,,,,1,0,11,2,1,,,,,,,,,,,,,,,,
,,,,,,,stim/VC_11.wav,5e3f7b673ba9991dc9cabcfa,2021-01-21_08h05.27.167,Hungarian_step4,2020.2.3,Win32,60,,,right,0.475125,,,,,,,,1,1,12,10,1,,,,,,,,,,,,,,,,
,,,,,,,stim/VC_01.wav,5e3f7b673ba9991dc9cabcfa,2021-01-21_08h05.27.167,Hungarian_step4,2020.2.3,Win32,60,,,left,0.417185,,,,,,,,1,2,13,0,1,,,,,,,,,,,,,,,,
,,,,,,,stim/VC_09.wav,5e3f7b673ba9991dc9cabcfa,2021-01-21_08h05.27.167,Hungarian_step4,2020.2.3,Win32,60,,,right,0.46763,,,,,,,,1,3,14,8,1,,,,,,,,,,,,,,,,
,,,,,,,stim/VC_05.wav,5e3f7b673ba9991dc9cabcfa,2021-01-21_08h05.27.167,Hungarian_step4,2020.2.3,Win32,60,,,left,0.519115,,,,,,,,1,4,15,4,1,,,,,,,,,,,,,,,,
,,,,,,,stim/VC_04.wav,5e3f7b673ba9991dc9cabcfa,2021-01-21_08h05.27.167,Hungarian_step4,2020.2.3,Win32,60,,,left,0.56867,,,,,,,,1,5,16,3,1,,,,,,,,,,,,,,,,
,,,,,,,stim/VC_10.wav,5e3f7b673ba9991dc9cabcfa,2021-01-21_08h05.27.167,Hungarian_step4,2020.2.3,Win32,60,,,right,0.44275,,,,,,,,1,6,17,9,1,,,,,,,,,,,,,,,,
,,,,,,,stim/VC_07.wav,5e3f7b673ba9991dc9cabcfa,2021-01-21_08h05.27.167,Hungarian_step4,2020.2.3,Win32,60,,,left,0.492495,,,,,,,,1,7,18,6,1,,,,,,,,,,,,,,,,
,,,,,,,stim/VC_06.wav,5e3f7b673ba9991dc9cabcfa,2021-01-21_08h05.27.167,Hungarian_step4,2020.2.3,Win32,60,,,left,0.44991,,,,,,,,1,8,19,5,1,,,,,,,,,,,,,,,,
,,,,,,,stim/VC_08.wav,5e3f7b673ba9991dc9cabcfa,2021-01-21_08h05.27.167,Hungarian_step4,2020.2.3,Win32,60,,,right,0.489495,,,,,,,,1,9,20,7,1,,,,,,,,,,,,,,,,
,,,,,,,stim/VC_02.wav,5e3f7b673ba9991dc9cabcfa,2021-01-21_08h05.27.167,Hungarian_step4,2020.2.3,Win32,60,,,left,0.46761,,,,,,,,1,10,21,1,1,,,,,,,,,,,,,,,,
,,,,,,,stim2/pa-30.wav,5e3f7b673ba9991dc9cabcfa,2021-01-21_08h05.27.167,Hungarian_step4,2020.2.3,Win32,60,,,,,,,,,,,,,,,,,left,1.017455,0,0,0,15,1,,,,,,,,,
,,,,,,,stim2/pa-20.wav,5e3f7b673ba9991dc9cabcfa,2021-01-21_08h05.27.167,Hungarian_step4,2020.2.3,Win32,60,,,,,,,,,,,,,,,,,left,0.664975,0,1,1,13,1,,,,,,,,,
,,,,,,,stim2/pa+10.wav,5e3f7b673ba9991dc9cabcfa,2021-01-21_08h05.27.167,Hungarian_step4,2020.2.3,Win32,60,,,,,,,,,,,,,,,,,left,0.673335,0,2,2,1,1,,,,,,,,,
,,,,,,,stim2/pa+30.wav,5e3f7b673ba9991dc9cabcfa,2021-01-21_08h05.27.167,Hungarian_step4,2020.2.3,Win32,60,,,,,,,,,,,,,,,,,right,0.550345,0,3,3,5,1,,,,,,,,,
,,,,,,,stim2/pa+35.wav,5e3f7b673ba9991dc9cabcfa,2021-01-21_08h05.27.167,Hungarian_step4,2020.2.3,Win32,60,,,,,,,,,,,,,,,,,left,0.53522,0,4,4,6,1,,,,,,,,,
,,,,,,,stim2/pa+20.wav,5e3f7b673ba9991dc9cabcfa,2021-01-21_08h05.27.167,Hungarian_step4,2020.2.3,Win32,60,,,,,,,,,,,,,,,,,left,0.383705,0,5,5,3,1,,,,,,,,,
,,,,,,,stim2/pa+45.wav,5e3f7b673ba9991dc9cabcfa,2021-01-21_08h05.27.167,Hungarian_step4,2020.2.3,Win32,60,,,,,,,,,,,,,,,,,left,0.388655,0,6,6,8,1,,,,,,,,,
,,,,,,,stim2/pa+25.wav,5e3f7b673ba9991dc9cabcfa,2021-01-21_08h05.27.167,Hungarian_step4,2020.2.3,Win32,60,,,,,,,,,,,,,,,,,left,0.358605,0,7,7,4,1,,,,,,,,,
,,,,,,,stim2/pa-10.wav,5e3f7b673ba9991dc9cabcfa,2021-01-21_08h05.27.167,Hungarian_step4,2020.2.3,Win32,60,,,,,,,,,,,,,,,,,left,0.51152,0,8,8,11,1,,,,,,,,,
,,,,,,,stim2/pa+50.wav,5e3f7b673ba9991dc9cabcfa,2021-01-21_08h05.27.167,Hungarian_step4,2020.2.3,Win32,60,,,,,,,,,,,,,,,,,left,0.74424,0,9,9,9,1,,,,,,,,,
,,,,,,,stim2/pa+15.wav,5e3f7b673ba9991dc9cabcfa,2021-01-21_08h05.27.167,Hungarian_step4,2020.2.3,Win32,60,,,,,,,,,,,,,,,,,left,0.51705,0,10,10,2,1,,,,,,,,,
,,,,,,,stim2/pa-05.wav,5e3f7b673ba9991dc9cabcfa,2021-01-21_08h05.27.167,Hungarian_step4,2020.2.3,Win32,60,,,,,,,,,,,,,,,,,left,0.583605,0,11,11,10,1,,,,,,,,,
,,,,,,,stim2/pa-15.wav,5e3f7b673ba9991dc9cabcfa,2021-01-21_08h05.27.167,Hungarian_step4,2020.2.3,Win32,60,,,,,,,,,,,,,,,,,left,0.502775,0,12,12,12,1,,,,,,,,,
,,,,,,,stim2/pa+05.wav,5e3f7b673ba9991dc9cabcfa,2021-01-21_08h05.27.167,Hungarian_step4,2020.2.3,Win32,60,,,,,,,,,,,,,,,,,left,0.46866,0,13,13,0,1,,,,,,,,,
,,,,,,,stim2/pa-35.wav,5e3f7b673ba9991dc9cabcfa,2021-01-21_08h05.27.167,Hungarian_step4,2020.2.3,Win32,60,,,,,,,,,,,,,,,,,right,1.48873,0,14,14,16,1,,,,,,,,,
,,,,,,,stim2/pa-25.wav,5e3f7b673ba9991dc9cabcfa,2021-01-21_08h05.27.167,Hungarian_step4,2020.2.3,Win32,60,,,,,,,,,,,,,,,,,right,0.546355,0,15,15,14,1,,,,,,,,,
,,,,,,,stim2/pa+40.wav,5e3f7b673ba9991dc9cabcfa,2021-01-21_08h05.27.167,Hungarian_step4,2020.2.3,Win32,60,,,,,,,,,,,,,,,,,left,0.683115,0,16,16,7,1,,,,,,,,,
,,,,,,,stim2/pa-20.wav,5e3f7b673ba9991dc9cabcfa,2021-01-21_08h05.27.167,Hungarian_step4,2020.2.3,Win32,60,,,,,,,,,,,,,,,,,right,0.55962,1,0,17,13,1,,,,,,,,,
,,,,,,,stim2/pa-25.wav,5e3f7b673ba9991dc9cabcfa,2021-01-21_08h05.27.167,Hungarian_step4,2020.2.3,Win32,60,,,,,,,,,,,,,,,,,right,0.629525,1,1,18,14,1,,,,,,,,,
,,,,,,,stim2/pa+20.wav,5e3f7b673ba9991dc9cabcfa,2021-01-21_08h05.27.167,Hungarian_step4,2020.2.3,Win32,60,,,,,,,,,,,,,,,,,right,1.362505,1,2,19,3,1,,,,,,,,,
,,,,,,,stim2/pa+30.wav,5e3f7b673ba9991dc9cabcfa,2021-01-21_08h05.27.167,Hungarian_step4,2020.2.3,Win32,60,,,,,,,,,,,,,,,,,left,0.503145,1,3,20,5,1,,,,,,,,,
,,,,,,,stim2/pa+50.wav,5e3f7b673ba9991dc9cabcfa,2021-01-21_08h05.27.167,Hungarian_step4,2020.2.3,Win32,60,,,,,,,,,,,,,,,,,left,0.62535,1,4,21,9,1,,,,,,,,,
,,,,,,,stim2/pa-35.wav,5e3f7b673ba9991dc9cabcfa,2021-01-21_08h05.27.167,Hungarian_step4,2020.2.3,Win32,60,,,,,,,,,,,,,,,,,right,0.52157,1,5,22,16,1,,,,,,,,,
,,,,,,,stim2/pa-15.wav,5e3f7b673ba9991dc9cabcfa,2021-01-21_08h05.27.167,Hungarian_step4,2020.2.3,Win32,60,,,,,,,,,,,,,,,,,right,0.80302,1,6,23,12,1,,,,,,,,,
,,,,,,,stim2/pa+25.wav,5e3f7b673ba9991dc9cabcfa,2021-01-21_08h05.27.167,Hungarian_step4,2020.2.3,Win32,60,,,,,,,,,,,,,,,,,left,0.543545,1,7,24,4,1,,,,,,,,,
,,,,,,,stim2/pa+40.wav,5e3f7b673ba9991dc9cabcfa,2021-01-21_08h05.27.167,Hungarian_step4,2020.2.3,Win32,60,,,,,,,,,,,,,,,,,right,0.7892,1,8,25,7,1,,,,,,,,,
,,,,,,,stim2/pa+15.wav,5e3f7b673ba9991dc9cabcfa,2021-01-21_08h05.27.167,Hungarian_step4,2020.2.3,Win32,60,,,,,,,,,,,,,,,,,left,0.669005,1,9,26,2,1,,,,,,,,,
,,,,,,,stim2/pa+05.wav,5e3f7b673ba9991dc9cabcfa,2021-01-21_08h05.27.167,Hungarian_step4,2020.2.3,Win32,60,,,,,,,,,,,,,,,,,right,0.558375,1,10,27,0,1,,,,,,,,,
,,,,,,,stim2/pa+35.wav,5e3f7b673ba9991dc9cabcfa,2021-01-21_08h05.27.167,Hungarian_step4,2020.2.3,Win32,60,,,,,,,,,,,,,,,,,left,0.912465,1,11,28,6,1,,,,,,,,,
,,,,,,,stim2/pa-10.wav,5e3f7b673ba9991dc9cabcfa,2021-01-21_08h05.27.167,Hungarian_step4,2020.2.3,Win32,60,,,,,,,,,,,,,,,,,right,0.758385,1,12,29,11,1,,,,,,,,,
,,,,,,,stim2/pa+10.wav,5e3f7b673ba9991dc9cabcfa,2021-01-21_08h05.27.167,Hungarian_step4,2020.2.3,Win32,60,,,,,,,,,,,,,,,,,right,0.62779,1,13,30,1,1,,,,,,,,,
,,,,,,,stim2/pa+45.wav,5e3f7b673ba9991dc9cabcfa,2021-01-21_08h05.27.167,Hungarian_step4,2020.2.3,Win32,60,,,,,,,,,,,,,,,,,right,0.61904,1,14,31,8,1,,,,,,,,,
,,,,,,,stim2/pa-30.wav,5e3f7b673ba9991dc9cabcfa,2021-01-21_08h05.27.167,Hungarian_step4,2020.2.3,Win32,60,,,,,,,,,,,,,,,,,right,0.54401,1,15,32,15,1,,,,,,,,,
,,,,,,,stim2/pa-05.wav,5e3f7b673ba9991dc9cabcfa,2021-01-21_08h05.27.167,Hungarian_step4,2020.2.3,Win32,60,,,,,,,,,,,,,,,,,right,1.11915,1,16,33,10,1,,,,,,,,,
,,,,,,,stim2/pa-25.wav,5e3f7b673ba9991dc9cabcfa,2021-01-21_08h05.27.167,Hungarian_step4,2020.2.3,Win32,60,,,,,,,,,,,,,,,,,right,1.21662,2,0,34,14,1,,,,,,,,,
,,,,,,,stim2/pa+15.wav,5e3f7b673ba9991dc9cabcfa,2021-01-21_08h05.27.167,Hungarian_step4,2020.2.3,Win32,60,,,,,,,,,,,,,,,,,left,0.704345,2,1,35,2,1,,,,,,,,,
,,,,,,,stim2/pa+20.wav,5e3f7b673ba9991dc9cabcfa,2021-01-21_08h05.27.167,Hungarian_step4,2020.2.3,Win32,60,,,,,,,,,,,,,,,,,left,1.056425,2,2,36,3,1,,,,,,,,,
,,,,,,,stim2/pa+05.wav,5e3f7b673ba9991dc9cabcfa,2021-01-21_08h05.27.167,Hungarian_step4,2020.2.3,Win32,60,,,,,,,,,,,,,,,,,right,0.45315,2,3,37,0,1,,,,,,,,,
,,,,,,,stim2/pa-05.wav,5e3f7b673ba9991dc9cabcfa,2021-01-21_08h05.27.167,Hungarian_step4,2020.2.3,Win32,60,,,,,,,,,,,,,,,,,right,0.484315,2,4,38,10,1,,,,,,,,,
,,,,,,,stim2/pa+40.wav,5e3f7b673ba9991dc9cabcfa,2021-01-21_08h05.27.167,Hungarian_step4,2020.2.3,Win32,60,,,,,,,,,,,,,,,,,right,0.558715,2,5,39,7,1,,,,,,,,,
,,,,,,,stim2/pa+25.wav,5e3f7b673ba9991dc9cabcfa,2021-01-21_08h05.27.167,Hungarian_step4,2020.2.3,Win32,60,,,,,,,,,,,,,,,,,left,0.651185,2,6,40,4,1,,,,,,,,,
,,,,,,,stim2/pa-10.wav,5e3f7b673ba9991dc9cabcfa,2021-01-21_08h05.27.167,Hungarian_step4,2020.2.3,Win32,60,,,,,,,,,,,,,,,,,right,1.12002,2,7,41,11,1,,,,,,,,,
,,,,,,,stim2/pa+45.wav,5e3f7b673ba9991dc9cabcfa,2021-01-21_08h05.27.167,Hungarian_step4,2020.2.3,Win32,60,,,,,,,,,,,,,,,,,left,0.523065,2,8,42,8,1,,,,,,,,,
,,,,,,,stim2/pa+30.wav,5e3f7b673ba9991dc9cabcfa,2021-01-21_08h05.27.167,Hungarian_step4,2020.2.3,Win32,60,,,,,,,,,,,,,,,,,right,0.61947,2,9,43,5,1,,,,,,,,,
,,,,,,,stim2/pa+10.wav,5e3f7b673ba9991dc9cabcfa,2021-01-21_08h05.27.167,Hungarian_step4,2020.2.3,Win32,60,,,,,,,,,,,,,,,,,left,0.62345,2,10,44,1,1,,,,,,,,,
,,,,,,,stim2/pa-20.wav,5e3f7b673ba9991dc9cabcfa,2021-01-21_08h05.27.167,Hungarian_step4,2020.2.3,Win32,60,,,,,,,,,,,,,,,,,right,0.57687,2,11,45,13,1,,,,,,,,,
,,,,,,,stim2/pa-15.wav,5e3f7b673ba9991dc9cabcfa,2021-01-21_08h05.27.167,Hungarian_step4,2020.2.3,Win32,60,,,,,,,,,,,,,,,,,left,0.519545,2,12,46,12,1,,,,,,,,,
,,,,,,,stim2/pa-35.wav,5e3f7b673ba9991dc9cabcfa,2021-01-21_08h05.27.167,Hungarian_step4,2020.2.3,Win32,60,,,,,,,,,,,,,,,,,right,0.41739,2,13,47,16,1,,,,,,,,,
,,,,,,,stim2/pa+35.wav,5e3f7b673ba9991dc9cabcfa,2021-01-21_08h05.27.167,Hungarian_step4,2020.2.3,Win32,60,,,,,,,,,,,,,,,,,left,0.45839,2,14,48,6,1,,,,,,,,,
,,,,,,,stim2/pa+50.wav,5e3f7b673ba9991dc9cabcfa,2021-01-21_08h05.27.167,Hungarian_step4,2020.2.3,Win32,60,,,,,,,,,,,,,,,,,right,0.42126,2,15,49,9,1,,,,,,,,,
,,,,,,,stim2/pa-30.wav,5e3f7b673ba9991dc9cabcfa,2021-01-21_08h05.27.167,Hungarian_step4,2020.2.3,Win32,60,,,,,,,,,,,,,,,,,right,0.770585,2,16,50,15,1,,,,,,,,,
,,,,,,,stim2/pa-15.wav,5e3f7b673ba9991dc9cabcfa,2021-01-21_08h05.27.167,Hungarian_step4,2020.2.3,Win32,60,,,,,,,,,,,,,,,,,right,1.09516,,,,,,f,5.52519,0,0,0,12,1,,
,,,,,,,stim2/pa+45.wav,5e3f7b673ba9991dc9cabcfa,2021-01-21_08h05.27.167,Hungarian_step4,2020.2.3,Win32,60,,,,,,,,,,,,,,,,,left,0.989805,,,,,,,,0,1,1,8,1,,
,,,,,,,stim2/pa+35.wav,5e3f7b673ba9991dc9cabcfa,2021-01-21_08h05.27.167,Hungarian_step4,2020.2.3,Win32,60,,,,,,,,,,,,,,,,,right,0.57591,,,,,,,,0,2,2,6,1,,
,,,,,,,stim2/pa-30.wav,5e3f7b673ba9991dc9cabcfa,2021-01-21_08h05.27.167,Hungarian_step4,2020.2.3,Win32,60,,,,,,,,,,,,,,,,,right,0.57768,,,,,,,,0,3,3,15,1,,
,,,,,,,stim2/pa+05.wav,5e3f7b673ba9991dc9cabcfa,2021-01-21_08h05.27.167,Hungarian_step4,2020.2.3,Win32,60,,,,,,,,,,,,,,,,,right,0.491795,,,,,,,,0,4,4,0,1,,
,,,,,,,stim2/pa-10.wav,5e3f7b673ba9991dc9cabcfa,2021-01-21_08h05.27.167,Hungarian_step4,2020.2.3,Win32,60,,,,,,,,,,,,,,,,,left,0.50623,,,,,,,,0,5,5,11,1,,
,,,,,,,stim2/pa-35.wav,5e3f7b673ba9991dc9cabcfa,2021-01-21_08h05.27.167,Hungarian_step4,2020.2.3,Win32,60,,,,,,,,,,,,,,,,,right,0.489595,,,,,,,,0,6,6,16,1,,
,,,,,,,stim2/pa-05.wav,5e3f7b673ba9991dc9cabcfa,2021-01-21_08h05.27.167,Hungarian_step4,2020.2.3,Win32,60,,,,,,,,,,,,,,,,,right,0.902525,,,,,,,,0,7,7,10,1,,
,,,,,,,stim2/pa+25.wav,5e3f7b673ba9991dc9cabcfa,2021-01-21_08h05.27.167,Hungarian_step4,2020.2.3,Win32,60,,,,,,,,,,,,,,,,,left,0.58283,,,,,,,,0,8,8,4,1,,
,,,,,,,stim2/pa-25.wav,5e3f7b673ba9991dc9cabcfa,2021-01-21_08h05.27.167,Hungarian_step4,2020.2.3,Win32,60,,,,,,,,,,,,,,,,,right,0.4368,,,,,,,,0,9,9,14,1,,
,,,,,,,stim2/pa+40.wav,5e3f7b673ba9991dc9cabcfa,2021-01-21_08h05.27.167,Hungarian_step4,2020.2.3,Win32,60,,,,,,,,,,,,,,,,,left,0.490075,,,,,,,,0,10,10,7,1,,
,,,,,,,stim2/pa+50.wav,5e3f7b673ba9991dc9cabcfa,2021-01-21_08h05.27.167,Hungarian_step4,2020.2.3,Win32,60,,,,,,,,,,,,,,,,,right,1.005175,,,,,,,,0,11,11,9,1,,
,,,,,,,stim2/pa-20.wav,5e3f7b673ba9991dc9cabcfa,2021-01-21_08h05.27.167,Hungarian_step4,2020.2.3,Win32,60,,,,,,,,,,,,,,,,,right,0.677165,,,,,,,,0,12,12,13,1,,
,,,,,,,stim2/pa+30.wav,5e3f7b673ba9991dc9cabcfa,2021-01-21_08h05.27.167,Hungarian_step4,2020.2.3,Win32,60,,,,,,,,,,,,,,,,,left,0.55857,,,,,,,,0,13,13,5,1,,
,,,,,,,stim2/pa+10.wav,5e3f7b673ba9991dc9cabcfa,2021-01-21_08h05.27.167,Hungarian_step4,2020.2.3,Win32,60,,,,,,,,,,,,,,,,,right,0.50027,,,,,,,,0,14,14,1,1,,
,,,,,,,stim2/pa+20.wav,5e3f7b673ba9991dc9cabcfa,2021-01-21_08h05.27.167,Hungarian_step4,2020.2.3,Win32,60,,,,,,,,,,,,,,,,,left,0.842745,,,,,,,,0,15,15,3,1,,
,,,,,,,stim2/pa+15.wav,5e3f7b673ba9991dc9cabcfa,2021-01-21_08h05.27.167,Hungarian_step4,2020.2.3,Win32,60,,,,,,,,,,,,,,,,,right,0.76145,,,,,,,,0,16,16,2,1,,
,,,,,,,stim2/pa-20.wav,5e3f7b673ba9991dc9cabcfa,2021-01-21_08h05.27.167,Hungarian_step4,2020.2.3,Win32,60,,,,,,,,,,,,,,,,,right,0.88344,,,,,,,,1,0,17,13,1,,
,,,,,,,stim2/pa+45.wav,5e3f7b673ba9991dc9cabcfa,2021-01-21_08h05.27.167,Hungarian_step4,2020.2.3,Win32,60,,,,,,,,,,,,,,,,,right,0.766595,,,,,,,,1,1,18,8,1,,
,,,,,,,stim2/pa+30.wav,5e3f7b673ba9991dc9cabcfa,2021-01-21_08h05.27.167,Hungarian_step4,2020.2.3,Win32,60,,,,,,,,,,,,,,,,,left,0.75267,,,,,,,,1,2,19,5,1,,
,,,,,,,stim2/pa-10.wav,5e3f7b673ba9991dc9cabcfa,2021-01-21_08h05.27.167,Hungarian_step4,2020.2.3,Win32,60,,,,,,,,,,,,,,,,,right,0.622645,,,,,,,,1,3,20,11,1,,
,,,,,,,stim2/pa-05.wav,5e3f7b673ba9991dc9cabcfa,2021-01-21_08h05.27.167,Hungarian_step4,2020.2.3,Win32,60,,,,,,,,,,,,,,,,,right,0.58821,,,,,,,,1,4,21,10,1,,
,,,,,,,stim2/pa-15.wav,5e3f7b673ba9991dc9cabcfa,2021-01-21_08h05.27.167,Hungarian_step4,2020.2.3,Win32,60,,,,,,,,,,,,,,,,,right,0.617505,,,,,,,,1,5,22,12,1,,
,,,,,,,stim2/pa-25.wav,5e3f7b673ba9991dc9cabcfa,2021-01-21_08h05.27.167,Hungarian_step4,2020.2.3,Win32,60,,,,,,,,,,,,,,,,,right,0.42317,,,,,,,,1,6,23,14,1,,
,,,,,,,stim2/pa-35.wav,5e3f7b673ba9991dc9cabcfa,2021-01-21_08h05.27.167,Hungarian_step4,2020.2.3,Win32,60,,,,,,,,,,,,,,,,,right,0.4772,,,,,,,,1,7,24,16,1,,
,,,,,,,stim2/pa+15.wav,5e3f7b673ba9991dc9cabcfa,2021-01-21_08h05.27.167,Hungarian_step4,2020.2.3,Win32,60,,,,,,,,,,,,,,,,,right,0.69456,,,,,,,,1,8,25,2,1,,
,,,,,,,stim2/pa+05.wav,5e3f7b673ba9991dc9cabcfa,2021-01-21_08h05.27.167,Hungarian_step4,2020.2.3,Win32,60,,,,,,,,,,,,,,,,,left,0.391175,,,,,,,,1,9,26,0,1,,
,,,,,,,stim2/pa+40.wav,5e3f7b673ba9991dc9cabcfa,2021-01-21_08h05.27.167,Hungarian_step4,2020.2.3,Win32,60,,,,,,,,,,,,,,,,,left,0.474515,,,,,,,,1,10,27,7,1,,
,,,,,,,stim2/pa+35.wav,5e3f7b673ba9991dc9cabcfa,2021-01-21_08h05.27.167,Hungarian_step4,2020.2.3,Win32,60,,,,,,,,,,,,,,,,,left,0.394555,,,,,,,,1,11,28,6,1,,
,,,,,,,stim2/pa-30.wav,5e3f7b673ba9991dc9cabcfa,2021-01-21_08h05.27.167,Hungarian_step4,2020.2.3,Win32,60,,,,,,,,,,,,,,,,,left,0.366885,,,,,,,,1,12,29,15,1,,
,,,,,,,stim2/pa+50.wav,5e3f7b673ba9991dc9cabcfa,2021-01-21_08h05.27.167,Hungarian_step4,2020.2.3,Win32,60,,,,,,,,,,,,,,,,,left,0.68602,,,,,,,,1,13,30,9,1,,
,,,,,,,stim2/pa+20.wav,5e3f7b673ba9991dc9cabcfa,2021-01-21_08h05.27.167,Hungarian_step4,2020.2.3,Win32,60,,,,,,,,,,,,,,,,,right,0.31744,,,,,,,,1,14,31,3,1,,
,,,,,,,stim2/pa+25.wav,5e3f7b673ba9991dc9cabcfa,2021-01-21_08h05.27.167,Hungarian_step4,2020.2.3,Win32,60,,,,,,,,,,,,,,,,,right,1.192645,,,,,,,,1,15,32,4,1,,
,,,,,,,stim2/pa+10.wav,5e3f7b673ba9991dc9cabcfa,2021-01-21_08h05.27.167,Hungarian_step4,2020.2.3,Win32,60,,,,,,,,,,,,,,,,,right,0.87024,,,,,,,,1,16,33,1,1,,
,,,,,,,,5e3f7b673ba9991dc9cabcfa,2021-01-21_08h05.27.167,Hungarian_step4,2020.2.3,Win32,60,,,,,,,,,,,,,,,,,,,,,,,,,,,,,,,space,7.83582
